time,accel_x,accel_y,accel_z
0,0,0,0
0.01,-0.000289394,0.002907331,0.000108126
0.02,-0.000359874,0.005474436,0.001199972
0.03,-0.000345992,0.006012357,0.000471426
0.04,-0.000529756,0.006390113,0.004105928
0.05,-0.000817652,0.006598248,0.002406607
0.06,-0.001109704,0.006659291,0.006749758
0.07,-0.001385492,0.006622131,0.001824697
0.08,-0.001703383,0.006509705,0.006098633
0.09,-0.002101413,0.0063214,-0.000887167
0.1,-0.002537342,0.006066976,0.005673185
0.11,-0.002857324,0.005771614,-0.001486321
0.12,-0.002950335,0.005522815,0.007496155
0.13,-0.002759652,0.005402885,-0.001387015
0.14,-0.002454369,0.005431572,0.008054208
0.15,-0.002204538,0.005544974,-0.003432494
0.16,-0.002108933,0.005648156,0.007194638
0.17,-0.002100757,0.00565154,-0.005081402
0.18,-0.002002523,0.005581862,0.008323139
0.19,-0.001713188,0.005487958,-0.004530611
0.2,-0.001270652,0.005447826,0.010245806
0.21,-0.000912146,0.005394122,-0.005195447
0.22,-0.000875231,0.005254123,0.00971405
0.23,-0.00123349,0.004910236,-0.008016922
0.24,-0.00183548,0.004422503,0.008676483
0.25,-0.002407222,0.003880361,-0.009380592
0.26,-0.002772094,0.00345336,0.010038569
0.27,-0.00289891,0.003162887,-0.009059734
0.28,-0.002976369,0.002948018,0.011385355
0.29,-0.003149921,0.002653864,-0.010179683
0.3,-0.003438062,0.002266656,0.011055617
0.31,-0.003677068,0.001840627,-0.011959759
0.32,-0.003634006,0.001602307,0.011423325
0.33,-0.003275894,0.001589041,-0.012475244
0.34,-0.002712633,0.001822924,0.012317496
0.35,-0.002206521,0.002085628,-0.013736199
0.36,-0.001937111,0.002286433,0.011836757
0.37,-0.001936842,0.002342576,-0.015629327
0.38,-0.002039625,0.002410886,0.012433216
0.39,-0.002069584,0.002560638,-0.014890562
0.4,-0.001982735,0.002841169,0.015965081
0.41,-0.001856199,0.003096552,-0.012542048
0.42,-0.00187123,0.003233099,0.018897684
0.43,-0.002101062,0.003182825,-0.012660084
0.44,-0.00256113,0.003117536,0.018452157
0.45,-0.003082028,0.003177017,-0.01600012
0.46,-0.003533314,0.003555959,0.015768128
0.47,-0.003820742,0.004140811,-0.020285412
0.48,-0.003952995,0.004838163,0.013465199
0.49,-0.003954917,0.00541713,-0.022799675
0.5,-0.003891076,0.005895328,0.013985926
0.51,-0.003768434,0.006219533,-0.022148104
0.52,-0.00361329,0.006482956,0.017109795
0.53,-0.003415961,0.006538517,-0.020284699
0.54,-0.003168791,0.006288307,0.019787848
0.55,-0.002826009,0.005590669,-0.020096641
0.56,-0.002316682,0.004506416,0.02008561
0.57,-0.001629886,0.00322115,-0.022519759
0.58,-0.000811585,0.00203898,0.017887982
0.59,-1.05E-06,0.001049322,-0.026956692
0.6,0.000656866,0.000345929,0.014833075
0.61,0.001104634,-0.000176018,-0.030169912
0.62,0.001424899,-0.000474011,0.015320664
0.63,0.001764857,-0.000527741,-0.028283736
0.64,0.002172487,-0.000254408,0.020643964
0.65,0.002561858,0.000216968,-0.02407432
0.66,0.002699406,0.000722269,0.02476991
0.67,0.002496574,0.000937144,-0.023588505
0.68,0.002059269,0.000728779,0.024854821
0.69,0.00179765,0.000107152,-0.025232206
0.7,0.002140294,-0.000725628,0.025602401
0.71,0.003143372,-0.00168443,-0.02445749
0.72,0.004494108,-0.002676438,0.028350892
0.73,0.005594519,-0.003897559,-0.023530855
0.74,0.006080094,-0.005319751,0.029509758
0.75,0.005891175,-0.007007157,-0.024593297
0.76,0.005543505,-0.008633247,0.029479532
0.77,0.005491122,-0.010040148,-0.025950008
0.78,0.005809993,-0.010997018,0.028867066
0.79,0.006168911,-0.011620477,-0.029322925
0.8,0.005984636,-0.011888118,0.024968124
0.81,0.005153244,-0.011961066,-0.035461461
0.82,0.003932314,-0.011595595,0.021269941
0.83,0.003039177,-0.010733459,-0.037419642
0.84,0.002907804,-0.00915119,0.024206957
0.85,0.003422386,-0.007047974,-0.03328564
0.86,0.003927532,-0.004668585,0.029740531
0.87,0.003649973,-0.002523441,-0.031272296
0.88,0.002523811,-0.000729287,0.029819852
0.89,0.00097143,0.000588314,-0.034934722
0.9,-0.000153417,0.001787945,0.026398648
0.91,-0.00034161,0.003018039,-0.039041335
0.92,0.000336917,0.004519359,0.024896186
0.93,0.001213896,0.006106451,-0.040339665
0.94,0.001583146,0.007723193,0.026075353
0.95,0.001347247,0.009165989,-0.03912294
0.96,0.000827216,0.010538189,0.029847007
0.97,0.000674584,0.011793989,-0.035323942
0.98,0.001124889,0.012991682,0.035241579
0.99,0.002008634,0.013729813,-0.032378123
1,0.002701241,0.013804264,0.036460605
1.01,0.002741963,0.01269502,-0.036286813
1.02,0.002233215,0.010533324,0.030037262
1.03,0.00170402,0.00744866,-0.045798795
1.04,0.001825379,0.003988206,0.022153525
1.05,0.002750189,0.000462339,-0.05225729
1.06,0.00415018,-0.002794637,0.020807702
1.07,0.005192738,-0.005913996,-0.050647359
1.08,0.005148719,-0.008829067,0.026732607
1.09,0.003875224,-0.01158568,-0.043678819
1.1,0.001783794,-0.013885331,0.035814971
1.11,-0.0004196,-0.015452944,-0.03568125
1.12,-0.002267682,-0.016105187,0.044071399
1.13,-0.003655644,-0.015855324,-0.030313029
1.14,-0.005002167,-0.014916542,0.047864064
1.15,-0.006637662,-0.013632506,-0.030750061
1.16,-0.008625046,-0.01208107,0.045321469
1.17,-0.010577091,-0.010428592,-0.036670486
1.18,-0.011918198,-0.008555654,0.039654784
1.19,-0.012492119,-0.006698412,-0.042579064
1.2,-0.012493708,-0.004999986,0.036882734
1.21,-0.012533365,-0.003875162,-0.043880088
1.22,-0.013053403,-0.003382419,0.038531071
1.23,-0.014004402,-0.003649509,-0.042400673
1.24,-0.014787799,-0.004274358,0.040829613
1.25,-0.014500053,-0.005112278,-0.041862999
1.26,-0.012857803,-0.005833824,0.041697496
1.27,-0.009995147,-0.006463674,-0.042124866
1.28,-0.006712292,-0.006875923,0.042716012
1.29,-0.003689417,-0.007157148,-0.041643543
1.3,-0.001327537,-0.007093297,0.044343609
1.31,0.000710174,-0.006772818,-0.041165046
1.32,0.002782116,-0.006069591,0.045235304
1.33,0.00502394,-0.005205548,-0.041903716
1.34,0.007033268,-0.004188369,0.04465537
1.35,0.008022627,-0.003212134,-0.044404763
1.36,0.007594887,-0.002232557,0.041777409
1.37,0.005585892,-0.001472433,-0.049774285
1.38,0.002782606,-0.000991737,0.035843125
1.39,-0.000118017,-0.00113314,-0.057211186
1.4,-0.002680687,-0.001936892,0.030028828
1.41,-0.004977344,-0.003420714,-0.061684855
1.42,-0.007385995,-0.005313014,0.029760354
1.43,-0.009999575,-0.007414039,-0.059464578
1.44,-0.012499767,-0.009517953,0.034975283
1.45,-0.014159136,-0.011758625,-0.054654653
1.46,-0.014453174,-0.014106798,0.039273917
1.47,-0.013291267,-0.016562302,-0.053426193
1.48,-0.011367451,-0.018724716,0.039331817
1.49,-0.009411525,-0.02014263,-0.054908007
1.5,-0.00787298,-0.020563029,0.039270948
1.51,-0.006591394,-0.02005959,-0.054185316
1.52,-0.004985052,-0.018959054,0.042309585
1.53,-0.002607682,-0.017751978,-0.051195875
1.54,0.0005676,-0.016538501,0.045631811
1.55,0.003974468,-0.015328404,-0.049881146
1.56,0.006895074,-0.013875461,0.045932028
1.57,0.008972974,-0.012397943,-0.052250872
1.58,0.010118945,-0.011215704,0.042282268
1.59,0.010503975,-0.011010772,-0.058664774
1.6,0.010205978,-0.011832407,0.034966843
1.61,0.008905883,-0.013562626,-0.066953579
1.62,0.00648061,-0.015194302,0.029016951
1.63,0.002861567,-0.015933562,-0.069754792
1.64,-0.001379763,-0.015251881,0.031861053
1.65,-0.005432878,-0.013364988,-0.063255173
1.66,-0.008443287,-0.010633892,0.041054233
1.67,-0.010181896,-0.00765662,-0.055538225
1.68,-0.010644332,-0.004463216,0.046035425
1.69,-0.010404016,-0.001065412,-0.055293307
1.7,-0.009842269,0.00263482,0.043700042
1.71,-0.009130651,0.006140841,-0.059884012
1.72,-0.008275745,0.008889528,0.039413116
1.73,-0.007111591,0.009908147,-0.064523453
1.74,-0.005667012,0.009325003,0.035380516
1.75,-0.003912609,0.007320443,-0.069336946
1.76,-0.001949506,0.004910362,0.031072208
1.77,0.000243321,0.002622314,-0.073622753
1.78,0.002664508,0.000650102,0.028438791
1.79,0.005295695,-0.001466462,-0.075585639
1.8,0.008002276,-0.004170508,0.027785088
1.81,0.010586625,-0.00744126,-0.076197995
1.82,0.012767051,-0.010692692,0.028540059
1.83,0.014388734,-0.013150866,-0.073895106
1.84,0.015408062,-0.014358799,0.034435907
1.85,0.015914134,-0.01444273,-0.064933547
1.86,0.016142532,-0.014114291,0.046212554
1.87,0.016298289,-0.014062427,-0.053776331
1.88,0.016432836,-0.014384505,0.05501521
1.89,0.016481778,-0.014855426,-0.049899343
1.9,0.016166157,-0.014970691,0.054413396
1.91,0.015362289,-0.014751254,-0.05472188
1.92,0.013866863,-0.014511133,0.047600963
1.93,0.01192664,-0.014775006,-0.063069577
1.94,0.009679233,-0.015604398,0.03936909
1.95,0.007384647,-0.016416342,-0.07116283
1.96,0.005106445,-0.016270483,0.033129599
1.97,0.00290242,-0.014281539,-0.074719787
1.98,0.000743663,-0.010556258,0.03401138
1.99,-0.001258817,-0.005547588,-0.069705274
2,-0.003070202,-0.000214426,0.042817471
2.01,-0.004631297,0.004861858,-0.059862374
2.02,-0.006077821,0.009608276,0.052069091
2.03,-0.007513269,0.014145918,-0.053305133
2.04,-0.008994053,0.018478445,0.05570502
2.05,-0.010261575,0.022227624,-0.053106692
2.06,-0.010882378,0.024758993,0.053025184
2.07,-0.010428335,0.025668993,-0.059487765
2.08,-0.00881982,0.025025108,0.043280955
2.09,-0.006261076,0.023115197,-0.072424407
2.1,-0.003417714,0.020499745,0.02954717
2.11,-0.000841105,0.017167929,-0.083940829
2.12,0.001169351,0.013050557,0.023662926
2.13,0.002615951,0.007829608,-0.083005504
2.14,0.003605846,0.001612892,0.031090302
2.15,0.004226909,-0.005145697,-0.07221338
2.16,0.004247098,-0.011699797,0.042153252
2.17,0.003663693,-0.017541534,-0.063322311
2.18,0.002501387,-0.022239053,0.048672252
2.19,0.001325089,-0.025838512,-0.058539763
2.2,0.00065955,-0.028283168,0.052939713
2.21,0.000925111,-0.029449232,-0.055038917
2.22,0.001820085,-0.029393998,0.054937878
2.23,0.002770653,-0.028096629,-0.055694176
2.24,0.003112693,-0.026153159,0.051966146
2.25,0.00265111,-0.024074073,-0.059371999
2.26,0.001814916,-0.022281371,0.04946951
2.27,0.001299655,-0.020846698,-0.060045551
2.28,0.001634797,-0.019614959,0.049270353
2.29,0.002630994,-0.018456044,-0.062166527
2.3,0.003700316,-0.017490835,0.043376421
2.31,0.004254378,-0.01697177,-0.071042532
2.32,0.00413663,-0.017007637,0.034912045
2.33,0.003882699,-0.017309594,-0.074759237
2.34,0.004101512,-0.017338333,0.038181214
2.35,0.005320176,-0.016529949,-0.065125807
2.36,0.007096544,-0.015063159,0.050455051
2.37,0.008851045,-0.013458758,-0.054677156
2.38,0.010027183,-0.012476421,0.056358458
2.39,0.010764325,-0.012414184,-0.052970403
2.4,0.011739458,-0.013068264,0.055475475
2.41,0.01358519,-0.013843106,-0.054434051
2.42,0.016477499,-0.014444288,0.053384958
2.43,0.01954618,-0.015193986,-0.05797471
2.44,0.021611932,-0.01678257,0.047016892
2.45,0.021746423,-0.019726839,-0.066296424
2.46,0.02003302,-0.023738397,0.038798895
2.47,0.017147257,-0.027888404,-0.070501267
2.48,0.014189244,-0.031131966,0.040367755
2.49,0.011704089,-0.032770703,-0.06294769
2.5,0.009377621,-0.033147965,0.051176982
2.51,0.006616001,-0.032838748,-0.051810433
2.52,0.002905521,-0.03225536,0.059820935
2.53,-0.001373097,-0.031192075,-0.045487714
2.54,-0.005378028,-0.028788602,0.064716227
2.55,-0.008285388,-0.024653101,-0.039868123
2.56,-0.009823857,-0.018809643,0.07095324
2.57,-0.010550663,-0.012215755,-0.03398281
2.58,-0.011298109,-0.00598588,0.073199159
2.59,-0.012568357,-0.00103354,-0.03727359
2.6,-0.014040715,0.002679071,0.063611848
2.61,-0.01480958,0.005394253,-0.049625738
2.62,-0.014152936,0.007535759,0.052106993
2.63,-0.011871422,0.009122725,-0.055590372
2.64,-0.00859731,0.009759977,0.052206667
2.65,-0.005261698,0.00930333,-0.050842529
2.66,-0.002699387,0.007574446,0.056467569
2.67,-0.000875315,0.005254178,-0.049539283
2.68,0.000464415,0.002887888,0.053616671
2.69,0.001765354,0.001078933,-0.053123418
2.7,0.003027815,-2.49E-05,0.051897262
2.71,0.003838016,-0.000412059,-0.050825028
2.72,0.003745683,-0.000470227,0.055038315
2.73,0.002351873,-0.000478404,-0.050816964
2.74,-3.81E-05,-0.000802218,0.047710039
2.75,-0.002910355,-0.001586751,-0.063539294
2.76,-0.005576681,-0.002846958,0.033809295
2.77,-0.00758417,-0.004259641,-0.071446206
2.78,-0.008621922,-0.005501194,0.034279224
2.79,-0.008869613,-0.006397116,-0.063819432
2.8,-0.008454077,-0.007183634,0.041497905
2.81,-0.007571923,-0.008336121,-0.060936476
2.82,-0.006288854,-0.010274572,0.038568912
2.83,-0.004417279,-0.012876866,-0.063499431
2.84,-0.001866548,-0.015498791,0.041357803
2.85,0.001582593,-0.017158026,-0.051413788
2.86,0.005559584,-0.017675691,0.057813874
2.87,0.009559844,-0.017359041,-0.037878448
2.88,0.012807273,-0.017291917,0.060308893
2.89,0.014975703,-0.018011124,-0.046029655
2.9,0.016060272,-0.019351347,0.046049206
2.91,0.016853607,-0.020010208,-0.057184698
2.92,0.018038132,-0.018593278,0.041911379
2.93,0.019821294,-0.014781429,-0.054345489
2.94,0.021697714,-0.009477287,0.044358228
2.95,0.022664229,-0.004378727,-0.056130189
2.96,0.022202095,-0.00067626,0.036826487
2.97,0.02028089,0.00147438,-0.062231645
2.98,0.018015743,0.003359796,0.037359389
2.99,0.016387385,0.006207142,-0.050748047
3,0.015670706,0.01003166,0.054754129
3.01,0.01521173,0.013703862,-0.034048408
3.02,0.013706599,0.015111883,0.061697843
3.03,0.010656975,0.013741154,-0.037154245
3.04,0.006257621,0.009893838,0.051423403
3.05,0.001959353,0.005873482,-0.046601935
3.06,-0.001085383,0.003320986,0.045893904
3.07,-0.002542322,0.002815305,-0.047047456
3.08,-0.003349487,0.003063247,0.045056194
3.09,-0.004814345,0.002324608,-0.05063691
3.1,-0.007354534,-0.000107018,0.036880223
3.11,-0.010302313,-0.003563684,-0.057798956
3.12,-0.011999796,-0.006293668,0.03383157
3.13,-0.011292944,-0.007059323,-0.052709729
3.14,-0.007997162,-0.006048879,0.043317176
3.15,-0.003604402,-0.004901498,-0.042239989
3.16,0.000214224,-0.005665699,0.047413826
3.17,0.002616122,-0.008679078,-0.044762453
3.18,0.003807105,-0.013200353,0.038870382
3.19,0.004855123,-0.017179609,-0.052654291
3.2,0.00635392,-0.019516732,0.034497748
3.21,0.007946644,-0.019880119,-0.049398795
3.22,0.008465766,-0.019717426,0.042154109
3.23,0.006723361,-0.020083319,-0.039503461
3.24,0.002857807,-0.021285035,0.048601612
3.25,-0.002034851,-0.02243836,-0.036781647
3.26,-0.006295457,-0.02230105,0.045887854
3.27,-0.009117479,-0.02040201,-0.040975192
3.28,-0.010484186,-0.017116514,0.040593138
3.29,-0.011531945,-0.013732682,-0.044352825
3.3,-0.013054804,-0.011323684,0.036782264
3.31,-0.015055847,-0.010004922,-0.04740858
3.32,-0.016829825,-0.009294737,0.0324775
3.33,-0.017358532,-0.00834207,-0.049044101
3.34,-0.016571544,-0.007015128,0.034015243
3.35,-0.014812907,-0.005552495,-0.040508411
3.36,-0.012988895,-0.004728937,0.046329587
3.37,-0.011484412,-0.004860995,-0.026707748
3.38,-0.010059893,-0.005992612,0.053953294
3.39,-0.008164898,-0.007511118,-0.026449648
3.4,-0.005343078,-0.009006925,0.045356125
3.41,-0.002025025,-0.010120104,-0.037027116
3.42,0.001078013,-0.010877629,0.037171078
3.43,0.003284611,-0.011248577,-0.036879593
3.44,0.004506352,-0.011366739,0.042719408
3.45,0.005095121,-0.011139031,-0.028278264
3.46,0.005563776,-0.010812522,0.046945005
3.47,0.006029492,-0.010509948,-0.029326757
3.48,0.006203714,-0.010534363,0.039037506
3.49,0.005781778,-0.010841801,-0.038331284
3.5,0.004819386,-0.011375498,0.029826324
3.51,0.003828383,-0.011831219,-0.044044393
3.52,0.003488712,-0.012202416,0.024735341
3.53,0.003920027,-0.012507465,-0.047071325
3.54,0.004870877,-0.01300729,0.021656561
3.55,0.00573651,-0.013606911,-0.046051038
3.56,0.006254056,-0.014183589,0.026146713
3.57,0.006727135,-0.014211709,-0.035533387
3.58,0.007747423,-0.013601093,0.037809525
3.59,0.009910353,-0.012176343,-0.024796568
3.6,0.012906565,-0.010433748,0.041488701
3.61,0.01610035,-0.008586069,-0.026925463
3.62,0.018668415,-0.006884301,0.032897343
3.63,0.020419057,-0.00508896,-0.035391541
3.64,0.021686478,-0.002960123,0.026454252
3.65,0.023197572,-0.000287969,-0.035107162
3.66,0.025383621,0.002754468,0.030209997
3.67,0.027965506,0.005814825,-0.028289111
3.68,0.030318126,0.008361509,0.03366202
3.69,0.031806104,0.01018933,-0.028120846
3.7,0.032486091,0.011371819,0.028350405
3.71,0.032804645,0.012361688,-0.032951575
3.72,0.033416314,0.013572972,0.025631878
3.73,0.034525299,0.015416137,-0.027849498
3.74,0.035626908,0.017706644,0.035773623
3.75,0.035957614,0.020125154,-0.013579332
3.76,0.034661492,0.021896844,0.046460494
3.77,0.031869561,0.022750176,-0.007243763
3.78,0.027920576,0.022352224,0.045235628
3.79,0.023699753,0.021244282,-0.011437507
3.8,0.019700109,0.01981058,0.038008001
3.81,0.015990915,0.018564519,-0.018193817
3.82,0.012252711,0.017417011,0.028426401
3.83,0.008067303,0.016169311,-0.028173394
3.84,0.003451096,0.014533109,0.017599262
3.85,-0.001281562,0.012755099,-0.031738964
3.86,-0.005498952,0.011403476,0.023802756
3.87,-0.00875935,0.011175844,-0.011921729
3.88,-0.010873081,0.012239088,0.049253792
3.89,-0.012331827,0.013932075,0.012328332
3.9,-0.013734904,0.015038563,0.059303047
3.91,-0.015610568,0.014881684,0.007435216
3.92,-0.018032534,0.013430253,0.04157487
3.93,-0.020510355,0.011960835,-0.010617975
3.94,-0.022421081,0.011639988,0.029526778
3.95,-0.023195615,0.013531995,-0.009831513
3.96,-0.023160307,0.016735705,0.037428135
3.97,-0.022907955,0.020104485,0.001366522
3.98,-0.023136116,0.022251455,0.044565714
3.99,-0.023918766,0.023023935,0.006559893
4,-0.024507795,0.02312081,0.046931752
4.01,-0.023955288,0.023712116,0.010367857
4.02,-0.021353804,0.025281948,0.047390751
4.03,-0.017347338,0.027156878,0.006783333
4.04,-0.013061805,0.028122097,0.034834187
4.05,-0.009952605,0.027504366,-0.008924318
4.06,-0.008417821,0.025693406,0.020430431
4.07,-0.007890089,0.024139321,-0.01046851
4.08,-0.006974177,0.023904586,0.03189756
4.09,-0.004689319,0.025390946,0.012293943
4.1,-0.001433618,0.027204571,0.05332974
4.11,0.001593217,0.027897374,0.025216427
4.12,0.002993276,0.026353027,0.050192993
4.13,0.002720828,0.023320708,0.012244696
4.14,0.001717449,0.020260752,0.033029198
4.15,0.001594767,0.018742794,0.001867527
4.16,0.003156747,0.019254942,0.030457672
4.17,0.005545586,0.020911167,0.009010189
4.18,0.007128749,0.022321358,0.040079134
4.19,0.006217493,0.022556921,0.020605263
4.2,0.003192297,0.021918205,0.049249482
4.21,-0.000564926,0.021427834,0.030466187
4.22,-0.002994211,0.021881701,0.056032652
4.23,-0.00323198,0.023363597,0.034641071
4.24,-0.002125138,0.024872583,0.050759013
4.25,-0.001445717,0.025540434,0.021371322
4.26,-0.002795197,0.024799649,0.028731356
4.27,-0.005628103,0.023600286,-8.88E-05
4.28,-0.008419817,0.023058252,0.012764919
4.29,-0.009336069,0.024076557,-0.00283832
4.3,-0.007943653,0.026420919,0.019110335
4.31,-0.005350457,0.029067388,0.00991408
4.32,-0.003383777,0.030800133,0.028153395
4.33,-0.003278128,0.030926254,0.013760424
4.34,-0.004160567,0.03003436,0.024460997
4.35,-0.004379611,0.029138554,0.010758468
4.36,-0.002363933,0.029150529,0.024442996
4.37,0.001635054,0.030182887,0.019428496
4.38,0.005959758,0.031586623,0.037267773
4.39,0.008575693,0.032488514,0.035549219
4.4,0.008358978,0.032265981,0.049259335
4.41,0.006429403,0.031272089,0.044547508
4.42,0.004616056,0.030121664,0.05201993
4.43,0.004527266,0.02952488,0.044041625
4.44,0.005884617,0.029429583,0.044183172
4.45,0.007191161,0.029377309,0.029895676
4.46,0.006839466,0.028706249,0.020083761
4.47,0.004310154,0.027256491,0.002251262
4.48,0.000938512,0.025590624,-0.007752101
4.49,-0.001534432,0.024618577,-0.014973356
4.5,-0.001754601,0.025177508,-0.011582804
4.51,-0.000504513,0.027036561,-0.001769574
4.52,0.000712477,0.029464183,0.011160708
4.53,0.000469077,0.031356543,0.027990303
4.54,-0.001263776,0.032094004,0.039508703
4.55,-0.003033092,0.03185246,0.055598523
4.56,-0.003312932,0.031335856,0.062303678
4.57,-0.001166455,0.031238263,0.075180135
4.58,0.002021914,0.031475722,0.072983844
4.59,0.004418255,0.031508948,0.07733615
4.6,0.004573707,0.030598207,0.062127833
4.61,0.002636942,0.028632801,0.058830111
4.62,9.00E-05,0.026124379,0.037168922
4.63,-0.001451084,0.024017939,0.035307848
4.64,-0.001178332,0.023009258,0.015374461
4.65,-0.000181474,0.022829855,0.019826283
4.66,0.000108019,0.02275346,0.003625641
4.67,-0.001332895,0.021988394,0.016385217
4.68,-0.003937721,0.020476595,0.0065143
4.69,-0.006166785,0.018848327,0.029110886
4.7,-0.006748088,0.017936844,0.023399147
4.71,-0.005395716,0.018215764,0.04815684
4.72,-0.003502707,0.01918612,0.036888702
4.73,-0.002623214,0.020103486,0.057267903
4.74,-0.003647967,0.020449218,0.039832834
4.75,-0.005706909,0.020618352,0.060161823
4.76,-0.007108669,0.021621305,0.041145003
4.77,-0.006711465,0.024098995,0.061673651
4.78,-0.004559366,0.028028728,0.036583134
4.79,-0.00231307,0.032378594,0.0524647
4.8,-0.001525459,0.036150351,0.021487239
4.81,-0.003087224,0.038881801,0.039671659
4.82,-0.005737351,0.041284346,0.012294143
4.83,-0.007817588,0.044266466,0.038446939
4.84,-0.008184309,0.048091194,0.01342146
4.85,-0.007157054,0.052080858,0.041282165
4.86,-0.006281673,0.054860665,0.013954926
4.87,-0.006814436,0.055831321,0.045267586
4.88,-0.009104359,0.055086642,0.022888708
4.89,-0.011651479,0.054064056,0.063542771
4.9,-0.012857311,0.053770539,0.042912023
4.91,-0.012106334,0.054163862,0.080506595
4.92,-0.010282693,0.054274067,0.046979486
4.93,-0.009272828,0.052814306,0.073654269
4.94,-0.010102203,0.04991628,0.031757603
4.95,-0.012770127,0.046625617,0.062302825
4.96,-0.015527909,0.044612303,0.026643356
4.97,-0.016922373,0.044577595,0.065727294
4.98,-0.01650243,0.045714568,0.029688234
4.99,-0.015403271,0.04633878,0.065309335
5,-0.015306797,0.044877903,0.020278177
5.01,-0.01682949,0.041791583,0.052717105
5.02,-0.019442009,0.038412231,0.007001432
5.03,-0.021458897,0.036377697,0.045172927
5.04,-0.021719089,0.03606531,0.001946958
5.05,-0.020154644,0.036442295,0.042892097
5.06,-0.018120237,0.036020168,-0.002844918
5.07,-0.017137144,0.033847643,0.038993354
5.08,-0.017553966,0.030875852,-0.006438028
5.09,-0.018720918,0.028526095,0.040848149
5.1,-0.019157157,0.027996697,-0.002927243
5.11,-0.01815076,0.028882174,0.04521436
5.12,-0.015774108,0.029818248,-0.005917226
5.13,-0.013306733,0.029461795,0.035293594
5.14,-0.011771475,0.027483483,-0.023888832
5.15,-0.011306243,0.025097994,0.017814723
5.16,-0.011199305,0.023767839,-0.036472998
5.17,-0.010409652,0.024362954,0.018904772
5.18,-0.008603232,0.02622443,-0.023688147
5.19,-0.006163962,0.027970018,0.042138191
5.2,-0.004151388,0.028467971,-0.000661236
5.21,-0.003407399,0.027337303,0.058802824
5.22,-0.003994293,0.025353067,0.000957329
5.23,-0.005337594,0.023385033,0.048333788
5.24,-0.006638479,0.022148444,-0.018921669
5.25,-0.007542953,0.021529322,0.030297549
5.26,-0.008150501,0.021406059,-0.030084524
5.27,-0.00904396,0.021541841,0.031935094
5.28,-0.010629845,0.022043097,-0.020482289
5.29,-0.01299221,0.022932978,0.048388378
5.3,-0.015631845,0.024089055,-0.003536739
5.31,-0.017769535,0.025081157,0.067337003
5.32,-0.018747456,0.025584707,0.01401801
5.33,-0.018020984,0.025189203,0.083851887
5.34,-0.015543928,0.023711317,0.021464609
5.35,-0.011624548,0.020865566,0.079937629
5.36,-0.006559917,0.016293668,0.002274442
5.37,-0.000851526,0.010226401,0.054668551
5.38,0.005419604,0.003222176,-0.018738255
5.39,0.012128367,-0.003558343,0.051949954
5.4,0.019250794,-0.00917149,-0.002484264
5.41,0.026457422,-0.013629125,0.082820424
5.42,0.033299006,-0.017868788,0.026335774
5.43,0.039084966,-0.023510659,0.098769227
5.44,0.043813472,-0.030930763,0.022743027
5.45,0.04773505,-0.039673774,0.084548326
5.46,0.05182097,-0.047803742,0.00479795
5.47,0.056888484,-0.05396239,0.072789429
5.48,0.063510116,-0.057680246,-0.003604199
5.49,0.071201704,-0.060401473,0.065402185
5.5,0.079200459,-0.063661369,-0.017272403
5.51,0.086572784,-0.068065894,0.049004118
5.52,0.092964158,-0.072712284,-0.033037741
5.53,0.098715736,-0.075870222,0.041905009
5.54,0.104513832,-0.076713819,-0.033920704
5.55,0.110830777,-0.075951114,0.043411022
5.56,0.117338207,-0.075789683,-0.040205645
5.57,0.123056263,-0.078316071,0.028387117
5.58,0.127008588,-0.083300769,-0.06221256
5.59,0.128798391,-0.089005097,0.011513437
5.6,0.128981893,-0.092560475,-0.068216246
5.61,0.128803396,-0.093083325,0.020010443
5.62,0.129335078,-0.091026285,-0.053933168
5.63,0.130447839,-0.089180112,0.034152963
5.64,0.131156223,-0.089410777,-0.047981106
5.65,0.129975537,-0.091845123,0.035301086
5.66,0.126379757,-0.094734504,-0.048853134
5.67,0.120781607,-0.09585742,0.0395494
5.68,0.114894796,-0.094626145,-0.041520299
5.69,0.110081974,-0.091843555,0.04820698
5.7,0.106390925,-0.089372085,-0.038557132
5.71,0.10275311,-0.088180963,0.045687187
5.72,0.097631625,-0.087438613,-0.047419459
5.73,0.090765233,-0.085596475,0.036114611
5.74,0.083233485,-0.080960574,-0.057690654
5.75,0.077141206,-0.074544837,0.02745514
5.76,0.074051448,-0.068235116,-0.06800207
5.77,0.073353061,-0.064661721,0.018247739
5.78,0.073053816,-0.064798132,-0.075681215
5.79,0.070615694,-0.068395674,0.018178046
5.8,0.065615947,-0.073410602,-0.068765121
5.81,0.059203686,-0.078526207,0.032190758
5.82,0.054149912,-0.083203376,-0.054508449
5.83,0.052301415,-0.087903618,0.043960448
5.84,0.053545926,-0.093023597,-0.048996047
5.85,0.055964843,-0.098429651,0.047344529
5.86,0.057455137,-0.103163518,-0.046038513
5.87,0.057602585,-0.106668961,0.054203472
5.88,0.057390246,-0.108642164,-0.038246758
5.89,0.058376612,-0.10991351,0.061871604
5.9,0.060762161,-0.111141878,-0.035880899
5.91,0.062724294,-0.112654326,0.059926026
5.92,0.061931096,-0.113793004,-0.042762501
5.93,0.056162058,-0.113235855,0.052264769
5.94,0.046844543,-0.109919973,-0.052326477
5.95,0.036320684,-0.102935718,0.042146067
5.96,0.027539301,-0.091989772,-0.065704062
5.97,0.021310714,-0.077578165,0.028609873
5.98,0.016601482,-0.059897046,-0.077163397
5.99,0.011187399,-0.040363914,0.025777977
6,0.003686081,-0.019950887,-0.070654248
6.01,-0.005108102,-0.000138882,0.041083076
6.02,-0.013552023,0.018123178,-0.055999383
6.03,-0.020194028,0.033971604,0.047777677
6.04,-0.025482404,0.04747139,-0.06459118
6.05,-0.031056907,0.058057037,0.026063692
6.06,-0.038362875,0.066251079,-0.094597851
6.07,-0.047522587,0.071949333,-0.000507464
6.08,-0.056701312,0.075867113,-0.112676722
6.09,-0.06395811,0.078767332,-0.006846493
6.1,-0.068115118,0.081513893,-0.112046982
6.11,-0.070460139,0.084393425,-0.002081363
6.12,-0.072865499,0.087210601,-0.107236729
6.13,-0.076643634,0.089384895,0.005682883
6.14,-0.081467623,0.090767732,-0.09539624
6.15,-0.085454263,0.091876636,0.024091213
6.16,-0.087266646,0.093743398,-0.075075641
6.17,-0.086509605,0.097471648,0.04160515
6.18,-0.085168754,0.102925605,-0.066539667
6.19,-0.085168097,0.109493892,0.042880845
6.2,-0.08724101,0.116140201,-0.068899124
6.21,-0.090318805,0.122358073,0.045439968
6.22,-0.09222055,0.128370258,-0.059472901
6.23,-0.091816866,0.134462472,0.060064527
6.24,-0.089233501,0.140296334,-0.049891534
6.25,-0.086488584,0.14448646,0.058609148
6.26,-0.085131469,0.145284717,-0.065003541
6.27,-0.085171432,0.141639133,0.037634258
6.28,-0.085142605,0.134482224,-0.082795829
6.29,-0.08299245,0.125598898,0.032674709
6.3,-0.078742197,0.117328716,-0.076065417
6.31,-0.073818839,0.110777093,0.0447996
6.32,-0.070940059,0.10546396,-0.068565476
6.33,-0.07153967,0.100463539,0.04417647
6.34,-0.075128297,0.095554965,-0.075874646
6.35,-0.079206503,0.091602485,0.038639508
6.36,-0.081300661,0.090587782,-0.073916801
6.37,-0.081141789,0.092793256,0.050031493
6.38,-0.080039574,0.097476514,-0.05976882
6.39,-0.080186022,0.10196907,0.061440972
6.4,-0.082347553,0.104234517,-0.055603962
6.41,-0.085365083,0.10336287,0.061829278
6.42,-0.086957291,0.101148454,-0.054724304
6.43,-0.085141609,0.099760795,0.068267364
6.44,-0.080641781,0.100430929,-0.045347828
6.45,-0.075305158,0.102568593,0.075358203
6.46,-0.071496003,0.104099099,-0.04781347
6.47,-0.0695933,0.103607356,0.063230608
6.48,-0.068538814,0.100859914,-0.064755633
6.49,-0.066276245,0.097920599,0.051435835
6.5,-0.061845699,0.096762139,-0.064764175
6.51,-0.056280891,0.097911417,0.064801738
6.52,-0.051581657,0.100051978,-0.045507402
6.53,-0.049575397,0.1006921,0.08084273
6.54,-0.049899312,0.098665496,-0.040776683
6.55,-0.051053989,0.094128913,0.073329818
6.56,-0.051097697,0.089434862,-0.057439536
6.57,-0.049286393,0.086444685,0.055102918
6.58,-0.046693147,0.085472286,-0.07344886
6.59,-0.04492076,0.084880424,0.043085912
6.6,-0.045493983,0.082027575,-0.08396885
6.61,-0.047763563,0.076037953,0.033021202
6.62,-0.050552087,0.067310224,-0.093903293
6.63,-0.052245434,0.058278555,0.026456134
6.64,-0.052359657,0.050752469,-0.095088535
6.65,-0.051183252,0.045243253,0.031664357
6.66,-0.049603069,0.040287596,-0.087067358
6.67,-0.047814638,0.033973413,0.037756135
6.68,-0.045491758,0.025712712,-0.087217803
6.69,-0.041923185,0.016315296,0.03181644
6.7,-0.0370384,0.007813246,-0.095649537
6.71,-0.031473708,0.001467747,0.026825003
6.72,-0.026546812,-0.002640758,-0.093866037
6.73,-0.02306399,-0.006259858,0.035064591
6.74,-0.021624775,-0.011133269,-0.084670665
6.75,-0.021706142,-0.01768813,0.040028772
6.76,-0.022921697,-0.025032057,-0.087439691
6.77,-0.024937982,-0.031240582,0.031256296
6.78,-0.027721561,-0.035389936,-0.097773784
6.79,-0.031418028,-0.037337386,0.025223076
6.8,-0.035876669,-0.038782032,-0.097401866
6.81,-0.040903699,-0.040988137,0.030895497
6.82,-0.046385867,-0.044317737,-0.08974683
6.83,-0.052274047,-0.047821378,0.038071295
6.84,-0.058756766,-0.049900456,-0.083537165
6.85,-0.065534338,-0.049845189,0.044877132
6.86,-0.072060275,-0.047686167,-0.075085477
6.87,-0.07740742,-0.044752115,0.054218459
6.88,-0.080915081,-0.042117645,-0.067818154
6.89,-0.08226281,-0.040034147,0.056732725
6.9,-0.081986158,-0.037908025,-0.070476313
6.91,-0.080267577,-0.03454995,0.051695282
6.92,-0.077532185,-0.029749768,-0.073953653
6.93,-0.073356243,-0.023740744,0.052724585
6.94,-0.067544922,-0.017730005,-0.068855936
6.95,-0.060128762,-0.01251164,0.05842665
6.96,-0.051785441,-0.008463636,-0.066723637
6.97,-0.043495264,-0.004941869,0.054781129
6.98,-0.036233402,-0.001339375,-0.0752245
6.99,-0.030069964,0.002670477,0.044191741
7,-0.024889547,0.006673785,-0.084400067
7.01,-0.020362158,0.009915629,0.038095394
7.02,-0.016692339,0.01185091,-0.087015232
7.03,-0.014827582,0.012382096,0.038429768
7.04,-0.015433151,0.012217339,-0.083775202
7.05,-0.019149037,0.012134324,0.044186663
7.06,-0.025298831,0.01250741,-0.075915434
7.07,-0.032727452,0.013286835,0.051846914
7.08,-0.040206321,0.01383995,-0.071169024
7.09,-0.047054964,0.013810819,0.050987565
7.1,-0.053259847,0.012895241,-0.078008114
7.11,-0.05920305,0.011608784,0.03960234
7.12,-0.065029072,0.010307454,-0.089769433
7.13,-0.070221315,0.009351125,0.030474898
7.14,-0.074175444,0.008514129,-0.093915711
7.15,-0.076061158,0.007418018,0.030880399
7.16,-0.076289494,0.005668145,-0.090003141
7.17,-0.075286466,0.00322911,0.035682577
7.18,-0.074004685,0.000411126,-0.085385649
7.19,-0.072663325,-0.002294256,0.038380586
7.2,-0.070931399,-0.004718976,-0.085004094
7.21,-0.068182486,-0.006906425,0.035231213
7.22,-0.063827214,-0.009282894,-0.091508487
7.23,-0.058335202,-0.011947848,0.025311124
7.24,-0.052498912,-0.014906224,-0.102291636
7.25,-0.047232438,-0.017598832,0.015517335
7.26,-0.042954749,-0.019684245,-0.107983068
7.27,-0.039444365,-0.020770829,0.014548157
7.28,-0.036159111,-0.021259231,-0.104263515
7.29,-0.032742483,-0.021478142,0.019553516
7.3,-0.029485732,-0.02201455,-0.100200929
7.31,-0.026885246,-0.022952825,0.019649437
7.32,-0.025451113,-0.024238676,-0.103491823
7.33,-0.024913033,-0.02546772,0.013815206
7.34,-0.024701776,-0.026478532,-0.108542058
7.35,-0.024003674,-0.027208735,0.010145003
7.36,-0.02252131,-0.027910543,-0.110101371
7.37,-0.020580898,-0.028649525,0.008575206
7.38,-0.018824609,-0.0295024,-0.111594768
7.39,-0.017648765,-0.030103601,0.007314072
7.4,-0.016876317,-0.030303652,-0.108995116
7.41,-0.015841273,-0.029753358,0.015953296
7.42,-0.014101599,-0.028771903,-0.092519724
7.43,-0.011590079,-0.027560455,0.036412925
7.44,-0.009046444,-0.026631951,-0.071939766
7.45,-0.007173166,-0.026030101,0.051202631
7.46,-0.006606971,-0.025788021,-0.064493148
7.47,-0.006889532,-0.025463961,0.050772764
7.48,-0.007454526,-0.024882141,-0.069548074
7.49,-0.007603132,-0.023924771,0.040672706
7.5,-0.00729443,-0.022924921,-0.084187211
7.51,-0.006912793,-0.022137618,0.01918936
7.52,-0.006953429,-0.021796006,-0.10940996
7.53,-0.007501302,-0.021649413,-0.004030052
7.54,-0.008004126,-0.021327027,-0.120205543
7.55,-0.007663404,-0.02028153,0.003923261
7.56,-0.006123583,-0.018576834,-0.09100289
7.57,-0.003688166,-0.016507975,0.045507399
7.58,-0.001316485,-0.014945177,-0.048427085
7.59,0.000237733,-0.014266125,0.076375137
7.6,0.000603868,-0.014863092,-0.034179588
7.61,0.000581291,-0.016144585,0.073277404
7.62,0.001099683,-0.017710184,-0.047853253
7.63,0.002995464,-0.019019201,0.05194228
7.64,0.006023683,-0.020181651,-0.072491395
7.65,0.009480056,-0.021301063,0.024671933
7.66,0.012371507,-0.022589387,-0.096772417
7.67,0.014332956,-0.02364915,0.009389418
7.68,0.015812541,-0.023950298,-0.093750017
7.69,0.017578036,-0.022897765,0.032009257
7.7,0.020079559,-0.020530806,-0.054510809
7.71,0.022902605,-0.017598826,0.074832317
7.72,0.02497767,-0.015394118,-0.020611146
7.73,0.025573202,-0.0146027,0.090116522
7.74,0.02458159,-0.015473339,-0.02163925
7.75,0.02305426,-0.017071579,0.078119112
7.76,0.022155986,-0.018481389,-0.033777842
7.77,0.022787619,-0.018775168,0.069972671
7.78,0.02428403,-0.018301267,-0.035816623
7.79,0.025511843,-0.01748851,0.06934066
7.8,0.025313412,-0.017035832,-0.035261087
7.81,0.023586336,-0.016807248,0.06974736
7.82,0.021264836,-0.016296375,-0.030906643
7.83,0.01966654,-0.014881729,0.07711635
7.84,0.019726843,-0.012527901,-0.02139327
7.85,0.020875002,-0.010024892,0.081729732
7.86,0.02206027,-0.008558279,-0.024856176
7.87,0.02227304,-0.00874503,0.067093747
7.88,0.021518735,-0.010405407,-0.044886803
7.89,0.020752843,-0.012452479,0.04676236
7.9,0.021016498,-0.013877155,-0.057679423
7.91,0.022855851,-0.013976481,0.042121573
7.92,0.025362837,-0.01340616,-0.053681312
7.93,0.027291839,-0.012941036,0.048836155
7.94,0.027524996,-0.013497858,-0.045129984
7.95,0.026312118,-0.014866493,0.05636493
7.96,0.024601694,-0.016501617,-0.035435622
7.97,0.023678547,-0.017491066,0.067115193
7.98,0.024073234,-0.017678697,-0.022521429
7.99,0.025140669,-0.017612639,0.076835476
8,0.025793939,-0.018315484,-0.018164975
8.01,0.025077256,-0.020493275,0.070059002
8.02,0.023265048,-0.023868613,-0.034175087
8.03,0.021209318,-0.027444833,0.046151978
8.04,0.019946275,-0.030147998,-0.05816519
8.05,0.019793268,-0.03131151,0.026147539
8.06,0.020087255,-0.03134423,-0.068059168
8.07,0.019831034,-0.031005875,0.024313629
8.08,0.01813023,-0.031132191,-0.062321375
8.09,0.015371301,-0.031582291,0.031517036
8.1,0.012334526,-0.031900453,-0.054716924
8.11,0.009991708,-0.031339394,0.036100403
8.12,0.008610115,-0.029915979,-0.050789629
8.13,0.007725471,-0.028146296,0.036757824
8.14,0.006537481,-0.026998379,-0.052341618
8.15,0.004441862,-0.02709237,0.028609134
8.16,0.001730079,-0.028152766,-0.065044267
8.17,-0.001023273,-0.029326014,0.012242427
8.18,-0.003198383,-0.02970365,-0.076455394
8.19,-0.004780336,-0.028846442,0.009723481
8.2,-0.006159212,-0.026955929,-0.064293159
8.21,-0.007853014,-0.024729126,0.031218641
8.22,-0.01001332,-0.022849247,-0.039536899
8.23,-0.012228753,-0.021435197,0.048286521
8.24,-0.013918955,-0.020397136,-0.032536846
8.25,-0.01463579,-0.019275866,0.043957491
8.26,-0.01449645,-0.017941186,-0.040000399
8.27,-0.013760983,-0.016283996,0.037003836
8.28,-0.012807104,-0.014640957,-0.041896919
8.29,-0.011698145,-0.013169773,0.035319098
8.3,-0.010269905,-0.012049931,-0.044331046
8.31,-0.008446542,-0.011060032,0.028361676
8.32,-0.006211762,-0.009909857,-0.05021214
8.33,-0.003781309,-0.008205425,0.025673116
8.34,-0.001139099,-0.0058045,-0.044240648
8.35,0.001848135,-0.002976911,0.035354695
8.36,0.005447495,-0.000383271,-0.03510166
8.37,0.009652236,0.001297171,0.034532188
8.38,0.014095757,0.001791832,-0.045161509
8.39,0.018099624,0.001305769,0.017013157
8.4,0.021374534,0.000657559,-0.059834841
8.41,0.023904808,0.000616282,0.009031867
8.42,0.026258242,0.001277788,-0.057908502
8.43,0.02878094,0.002232748,0.013151597
8.44,0.031402501,0.002531512,-0.055377018
8.45,0.033477196,0.001853233,0.008469311
8.46,0.034181455,0.000231288,-0.061839148
8.47,0.033441583,-0.001345585,0.0031519
8.48,0.031754519,-0.002191246,-0.058732789
8.49,0.030031553,-0.002126084,0.011220051
8.5,0.028793824,-0.001915999,-0.048373041
8.51,0.027724645,-0.002650978,0.014174914
8.52,0.025982028,-0.004764854,-0.052692456
8.53,0.022714378,-0.007925388,0.00310764
8.54,0.018254268,-0.010931179,-0.0611284
8.55,0.013584869,-0.012745962,0.000297307
8.56,0.010168385,-0.013145842,-0.054505716
8.57,0.008297455,-0.012999213,0.009451398
8.58,0.007530323,-0.013638461,-0.046106595
8.59,0.006303061,-0.01558134,0.011293402
8.6,0.00363529,-0.018570714,-0.04604551
8.61,-0.000383483,-0.021275379,0.011519971
8.62,-0.004542288,-0.022768863,-0.038935004
8.63,-0.007378291,-0.022684034,0.022060453
8.64,-0.008573285,-0.022133659,-0.026847363
8.65,-0.008765586,-0.02234282,0.026408164
8.66,-0.009373046,-0.023986066,-0.030051563
8.67,-0.011254308,-0.026658953,0.015274395
8.68,-0.013993964,-0.02916474,-0.04025376
8.69,-0.016376352,-0.030556591,0.008266561
8.7,-0.016889336,-0.030562391,-0.039760749
8.71,-0.015782132,-0.030230593,0.010057598
8.72,-0.01399169,-0.030709942,-0.039030028
8.73,-0.013246602,-0.032476817,0.004065037
8.74,-0.014150075,-0.034975452,-0.047248592
8.75,-0.016220239,-0.036784968,-0.004636126
8.76,-0.017792278,-0.037006957,-0.049378696
8.77,-0.017480454,-0.035288159,-0.00248729
8.78,-0.015386072,-0.03281507,-0.043038773
8.79,-0.012697964,-0.030754197,0.000237947
8.8,-0.011033555,-0.029888779,-0.043411893
8.81,-0.011021347,-0.029798227,-0.005045976
8.82,-0.012139334,-0.029463632,-0.046348946
8.83,-0.0129064,-0.028089844,-0.005193136
8.84,-0.012141363,-0.025600658,-0.040121136
8.85,-0.010107686,-0.022943934,0.001598786
8.86,-0.007849387,-0.021109598,-0.033813798
8.87,-0.006888499,-0.020624147,0.001808078
8.88,-0.00741609,-0.020867417,-0.036052782
8.89,-0.008930594,-0.020782595,-0.003088546
8.9,-0.009935122,-0.019624446,-0.038036844
8.91,-0.009668786,-0.017372128,-0.004637329
8.92,-0.008354642,-0.014902101,-0.037442638
8.93,-0.007193179,-0.013077176,-0.006754593
8.94,-0.007439135,-0.012404873,-0.039474737
8.95,-0.009190785,-0.012298444,-0.010272347
8.96,-0.011660121,-0.011951254,-0.038898217
8.97,-0.013499194,-0.010794044,-0.007590758
8.98,-0.01386497,-0.00895625,-0.032144423
8.99,-0.013048146,-0.007207278,-0.002881813
9,-0.012100182,-0.006204986,-0.029334108
9.01,-0.012290216,-0.006306262,-0.006910339
9.02,-0.013596626,-0.006888726,-0.036575133
9.03,-0.015411898,-0.007282806,-0.018187924
9.04,-0.016380534,-0.007005121,-0.046188271
9.05,-0.015972152,-0.006229339,-0.027014816
9.06,-0.014242548,-0.005512684,-0.049248567
9.07,-0.012356713,-0.005334869,-0.026490965
9.08,-0.01113551,-0.005810831,-0.041598678
9.09,-0.010691227,-0.006503202,-0.015380315
9.1,-0.010260435,-0.006935743,-0.025753571
9.11,-0.008895008,-0.006919933,-0.00057382
9.12,-0.006271899,-0.00668939,-0.01143288
9.13,-0.00289295,-0.006737231,0.008082286
9.14,0.000143027,-0.007239641,-0.005669337
9.15,0.00192288,-0.008123244,0.008683033
9.16,0.00265316,-0.008893702,-0.006047069
9.17,0.003074849,-0.009244066,0.005043297
9.18,0.004325722,-0.009069661,-0.009548037
9.19,0.006515928,-0.008759633,-0.001388432
9.2,0.009257261,-0.008680916,-0.015330151
9.21,0.011411908,-0.009001975,-0.008926329
9.22,0.012439111,-0.009528955,-0.020506178
9.23,0.012464743,-0.009939425,-0.014396878
9.24,0.012414895,-0.010023822,-0.023131335
9.25,0.013091031,-0.009920588,-0.017531563
9.26,0.014541615,-0.009957578,-0.023358009
9.27,0.01605757,-0.010502139,-0.017021391
9.28,0.016771195,-0.011480511,-0.017563257
9.29,0.01623677,-0.012664302,-0.008590344
9.3,0.014955355,-0.013634637,-0.004376338
9.31,0.013804228,-0.014364831,0.003304155
9.32,0.01369592,-0.015015223,0.005354434
9.33,0.014351239,-0.016029093,0.004922478
9.34,0.015167732,-0.017579804,0.001830328
9.35,0.015189518,-0.019538166,-0.00459173
9.36,0.014371089,-0.021399833,-0.006475601
9.37,0.01320238,-0.022715115,-0.011225762
9.38,0.012672502,-0.02342504,-0.007009259
9.39,0.01323767,-0.023883029,-0.010072495
9.4,0.014452736,-0.024597197,-0.003186826
9.41,0.015292946,-0.025934977,-0.008480269
9.42,0.014937494,-0.027691804,-0.000543602
9.43,0.013456178,-0.029408595,-0.006704489
9.44,0.011748541,-0.030391259,0.004601907
9.45,0.010804726,-0.030670617,-0.00198417
9.46,0.011173132,-0.03046909,0.009721571
9.47,0.012152941,-0.030520962,-0.001834642
9.48,0.012834265,-0.031126181,0.007701733
9.49,0.012307998,-0.03231713,-0.006988992
9.5,0.011019767,-0.033450192,0.005761511
9.51,0.00982657,-0.034002893,-0.006715666
9.52,0.00976638,-0.033821302,0.010378102
9.53,0.010945863,-0.033364707,-0.004579199
9.54,0.012669094,-0.033279836,0.009551144
9.55,0.013888752,-0.033970191,-0.012194087
9.56,0.014127963,-0.0351738,0.001597866
9.57,0.01403827,-0.036098559,-0.018483563
9.58,0.014848871,-0.035806438,0.004162106
9.59,0.017303548,-0.034219877,-0.010298487
9.6,0.021261466,-0.03182651,0.016709367
9.61,0.025501173,-0.029788126,-0.002347463
9.62,0.02893672,-0.028644215,0.019546285
9.63,0.030932931,-0.028516756,-0.007622255
9.64,0.032454287,-0.028342337,0.012233509
9.65,0.034577142,-0.027294891,-0.016329956
9.66,0.038177452,-0.024926037,0.006710425
9.67,0.042760484,-0.021915827,-0.022277738
9.68,0.047168322,-0.019200227,0.002250069
9.69,0.05025253,-0.017433651,-0.028117514
9.7,0.051682891,-0.016378421,0.000105745
9.71,0.052310112,-0.015123688,-0.027437447
9.72,0.05326299,-0.012768278,0.006875406
9.73,0.055072799,-0.009295947,-0.020233246
9.74,0.057264112,-0.00552022,0.01336136
9.75,0.058550998,-0.0028169,-0.021177209
9.76,0.058291682,-0.001523406,0.007719395
9.77,0.056428119,-0.00141925,-0.031070007
9.78,0.054125742,-0.001177662,0.001361826
9.79,0.05231544,-3.51E-05,-0.033072679
9.8,0.051431926,0.002310278,0.007743872
9.81,0.050572761,0.004823792,-0.023500532
9.82,0.048585976,0.006563127,0.019051512
9.83,0.044888529,0.007059053,-0.017495346
9.84,0.039997405,0.006841145,0.019909368
9.85,0.035276893,0.006791011,-0.025674947
9.86,0.031923504,0.007572954,0.006964942
9.87,0.030537875,0.009053612,-0.043274559
9.88,0.03020249,0.01051811,-0.008456042
9.89,0.029844855,0.011209268,-0.055085054
9.9,0.028784744,0.011263428,-0.010515425
9.91,0.027117892,0.011178173,-0.049096625
9.92,0.025654719,0.011905727,0.005998911
9.93,0.024859759,0.013478213,-0.027186226
9.94,0.024836039,0.015695045,0.032781836
9.95,0.024840838,0.017638411,-0.002039689
9.96,0.024426485,0.018953505,0.054896616
9.97,0.023655362,0.01954606,0.009942118
9.98,0.023343621,0.01991054,0.056884517
9.99,0.024609043,0.020146562,-0.001630342
10,0.027629975,0.020229433,0.037507181
10.01,0.031973605,0.019618629,-0.025299878
10.02,0.036378291,0.018245061,0.018456514
10.03,0.039787057,0.016185642,-0.03838567
10.04,0.041778723,0.014039893,0.014495067
10.05,0.04284599,0.012008244,-0.038809219
10.06,0.043694111,0.010128245,0.01668232
10.07,0.044725964,0.007857524,-0.038249528
10.08,0.045888664,0.005017696,0.019380452
10.09,0.046670118,0.001678441,-0.033768207
10.1,0.046867833,-0.001507612,0.029397874
10.11,0.046441481,-0.004114336,-0.022474042
10.12,0.045821661,-0.006150851,0.041234156
10.13,0.04508889,-0.008248691,-0.016055898
10.14,0.044029271,-0.01087423,0.044255745
10.15,0.042095454,-0.014196428,-0.016851538
10.16,0.038923564,-0.017438437,0.045262269
10.17,0.034826525,-0.019960741,-0.015158484
10.18,0.030674667,-0.021064322,0.048940569
10.19,0.02747407,-0.021475258,-0.014794792
10.2,0.02603848,-0.021889066,0.046535471
10.21,0.026357936,-0.023129496,-0.021762856
10.22,0.028024076,-0.024933338,0.040831709
10.23,0.030600704,-0.026584697,-0.0248723
10.24,0.03379679,-0.027225357,0.044305619
10.25,0.037672229,-0.026732968,-0.019149309
10.26,0.042183102,-0.025864097,0.051026669
10.27,0.047043019,-0.025741214,-0.017539815
10.28,0.05175082,-0.026869879,0.048773856
10.29,0.055896139,-0.028927493,-0.024553522
10.3,0.05935195,-0.030784158,0.042468246
10.31,0.062495283,-0.031749088,-0.030246362
10.32,0.065701629,-0.031520569,0.040565626
10.33,0.068971509,-0.030985785,-0.031328858
10.34,0.071941651,-0.030802696,0.041708149
10.35,0.07381824,-0.031440554,-0.030452148
10.36,0.074364958,-0.032217735,0.045291482
10.37,0.073435142,-0.032331058,-0.025515757
10.38,0.071750696,-0.031209547,0.054142098
10.39,0.069787557,-0.029149257,-0.016028825
10.4,0.067864531,-0.026915449,0.064775705
10.41,0.065858544,-0.0253519,-0.008433379
10.42,0.063545882,-0.024626652,0.070146267
10.43,0.060939995,-0.024228789,-0.007680605
10.44,0.05833947,-0.023276443,0.069588322
10.45,0.056108586,-0.02145592,-0.010243187
10.46,0.054397364,-0.018789719,0.068694419
10.47,0.052938906,-0.015945675,-0.011115716
10.48,0.051331326,-0.013264603,0.069452457
10.49,0.049242219,-0.010989509,-0.012238044
10.5,0.046928738,-0.00868861,0.067565517
10.51,0.044832581,-0.006205988,-0.016994879
10.52,0.043453743,-0.003439281,0.063138202
10.53,0.042810675,-0.000824431,-0.021693481
10.54,0.042656016,0.001253448,0.060970727
10.55,0.042491817,0.002530024,-0.02411227
10.56,0.042115275,0.003077934,0.058402156
10.57,0.041675582,0.003087329,-0.030395914
10.58,0.041488133,0.00287122,0.05041352
10.59,0.041732138,0.002428027,-0.040170011
10.6,0.04223756,0.001927443,0.043568412
10.61,0.042605869,0.001307268,-0.043629698
10.62,0.042580846,0.000777382,0.045826021
10.63,0.042121524,0.000265623,-0.039072472
10.64,0.041526686,-0.000211268,0.052832594
10.65,0.041023616,-0.000927981,-0.032783111
10.66,0.040625703,-0.001955655,0.060120335
10.67,0.040064742,-0.003364636,-0.026219866
10.68,0.039021962,-0.004978925,0.067080086
10.69,0.037533691,-0.006798518,-0.02258113
10.7,0.035905324,-0.008778452,0.066818672
10.71,0.034620222,-0.011206232,-0.029977774
10.72,0.033863128,-0.014021567,0.0550391
10.73,0.033521117,-0.017209262,-0.044548767
10.74,0.033108056,-0.020209297,0.043498878
10.75,0.032251387,-0.02265289,-0.051249174
10.76,0.030962654,-0.024255091,0.044641222
10.77,0.029553113,-0.025294445,-0.045040236
10.78,0.028440608,-0.026097764,0.055380158
10.79,0.027726252,-0.027141241,-0.03384906
10.8,0.027280316,-0.028472494,0.066595264
10.81,0.026804592,-0.029990918,-0.025550275
10.82,0.026223248,-0.031405558,0.072536514
10.83,0.025799569,-0.032788443,-0.024438681
10.84,0.02584197,-0.03421792,0.070173327
10.85,0.026576598,-0.036044641,-0.031211555
10.86,0.027614781,-0.038107521,0.062217547
10.87,0.028389223,-0.040197975,-0.039223731
10.88,0.028381751,-0.041735408,0.0578892
10.89,0.027529827,-0.042512042,-0.040040637
10.9,0.026212618,-0.042431024,0.061971286
10.91,0.025007132,-0.041989006,-0.033898976
10.92,0.024278773,-0.041514879,0.06941848
10.93,0.023848771,-0.041360662,-0.02833956
10.94,0.023316448,-0.041475479,0.073357846
10.95,0.022352712,-0.04180242,-0.027397203
10.96,0.020986305,-0.0421375,0.073469597
10.97,0.019581844,-0.042543329,-0.028281982
10.98,0.018441505,-0.042948976,0.073688991
10.99,0.017625142,-0.043398149,-0.027981742
11,0.016691199,-0.043650712,0.074959246
11.01,0.015203407,-0.043599132,-0.027550238
11.02,0.01292015,-0.043031557,0.07537533
11.03,0.0102098,-0.042125227,-0.028304214
11.04,0.007679616,-0.040963413,0.074895048
11.05,0.005820901,-0.039870006,-0.029400356
11.06,0.004728458,-0.038886864,0.074375242
11.07,0.003984901,-0.038057306,-0.030446452
11.08,0.003079591,-0.037187053,0.074049205
11.09,0.001783134,-0.036172279,-0.030586151
11.1,0.000331728,-0.034826259,0.075654791
11.11,-0.000740072,-0.033019408,-0.028107851
11.12,-0.00119316,-0.030587109,0.079367027
11.13,-0.001106263,-0.02745844,-0.025494732
11.14,-0.001082627,-0.023558383,0.080466859
11.15,-0.001563075,-0.01916954,-0.027439385
11.16,-0.002807223,-0.014532049,0.076812843
11.17,-0.004311236,-0.010095952,-0.032463294
11.18,-0.005564423,-0.006068604,0.07274448
11.19,-0.006224522,-0.002533653,-0.035720727
11.2,-0.006526443,0.000663791,0.070982146
11.21,-0.007030985,0.003538181,-0.037539361
11.22,-0.008190853,0.006142248,0.069120797
11.23,-0.010075476,0.008180501,-0.040702102
11.24,-0.012167436,0.009621021,0.065370473
11.25,-0.013902701,0.010374327,-0.045524245
11.26,-0.01513581,0.01072383,0.060451497
11.27,-0.016157918,0.010889626,-0.050874013
11.28,-0.017641356,0.011048814,0.055908955
11.29,-0.019783862,0.011052362,-0.054533901
11.3,-0.022487982,0.010686739,0.054604223
11.31,-0.025026443,0.009829973,-0.053534987
11.32,-0.026925411,0.008710295,0.05837842
11.33,-0.028012038,0.007761623,-0.048247805
11.34,-0.028778356,0.007367838,0.064482681
11.35,-0.029715748,0.00762392,-0.043359506
11.36,-0.031054511,0.0080788,0.067516301
11.37,-0.032526553,0.008141024,-0.043217218
11.38,-0.033681929,0.007490244,0.06535753
11.39,-0.034220131,0.006233806,-0.047170012
11.4,-0.034293684,0.004901121,0.061331215
11.41,-0.034322516,0.003903472,-0.050549379
11.42,-0.034760903,0.00339589,0.059528926
11.43,-0.035535746,0.002931163,-0.051343342
11.44,-0.036414891,0.002102379,0.059395201
11.45,-0.036942889,0.000732022,-0.05153123
11.46,-0.037089052,-0.000784177,0.059585898
11.47,-0.036935417,-0.001812577,-0.05054299
11.48,-0.036869226,-0.002065732,0.062022248
11.49,-0.036982308,-0.001691435,-0.047348883
11.5,-0.037207705,-0.001342041,0.064918838
11.51,-0.037252601,-0.00152763,-0.046324743
11.52,-0.03697966,-0.002236408,0.063690588
11.53,-0.036396053,-0.002839035,-0.049116731
11.54,-0.035684337,-0.002409599,0.061248385
11.55,-0.034888903,-0.000696685,-0.050009401
11.56,-0.033994991,0.002075291,0.06201362
11.57,-0.032750946,0.005038541,-0.048854413
11.58,-0.03114191,0.00756495,0.062165689
11.59,-0.029111737,0.009451765,-0.050179165
11.6,-0.026941502,0.011235687,0.060303464
11.61,-0.024671572,0.013468751,-0.050845589
11.62,-0.02235733,0.016251408,0.061605636
11.63,-0.019848151,0.019137812,-0.048281446
11.64,-0.017217822,0.021345946,0.063341277
11.65,-0.014618972,0.022588744,-0.048895625
11.66,-0.012531805,0.023016148,0.060248767
11.67,-0.01106965,0.023491807,-0.052351682
11.68,-0.010296655,0.024671824,0.059210099
11.69,-0.009764522,0.026623084,-0.048971607
11.7,-0.0091741,0.028778364,0.066312468
11.71,-0.008282401,0.030272612,-0.040432668
11.72,-0.0073763,0.03079684,0.073093116
11.73,-0.006739778,0.030477878,-0.037156607
11.74,-0.006590893,0.030055212,0.072454642
11.75,-0.006702737,0.03004835,-0.04007936
11.76,-0.006716809,0.030482601,0.068077476
11.77,-0.006308604,0.030910376,-0.045061071
11.78,-0.005591366,0.03072237,0.061779911
11.79,-0.005002221,0.029944218,-0.052320235
11.8,-0.005117159,0.028957811,0.054187711
11.81,-0.005963169,0.028501401,-0.057759742
11.82,-0.007228685,0.028900226,0.052467746
11.83,-0.008139693,0.030040938,-0.054310325
11.84,-0.008383413,0.03123835,0.059454327
11.85,-0.007857947,0.031895531,-0.046111839
11.86,-0.007241243,0.031907754,0.065438225
11.87,-0.006974765,0.031593644,-0.043595719
11.88,-0.007267516,0.031440903,0.063952191
11.89,-0.007634797,0.031663496,-0.046771293
11.9,-0.007449864,0.032071425,0.060706685
11.91,-0.006410497,0.032283629,-0.048032887
11.92,-0.004762857,0.032014051,0.060799578
11.93,-0.003179751,0.031475052,-0.046952109
11.94,-0.002288943,0.031020631,0.060748075
11.95,-0.002130823,0.031081697,-0.04811912
11.96,-0.002224667,0.031595536,0.058100553
11.97,-0.001787406,0.032363088,-0.050225015
11.98,-0.000671793,0.032982201,0.056770812
11.99,0.000915639,0.033362102,-0.049777313
12,0.002147585,0.03362159,0.057409269
12.01,0.002639251,0.034031455,-0.049087794
12.02,0.002280003,0.03468376,0.057039985
12.03,0.001808013,0.035444728,-0.048695887
12.04,0.001784216,0.035987358,0.058944252
12.05,0.0024229,0.036159687,-0.043440751
12.06,0.003267108,0.035914015,0.06575513
12.07,0.003669422,0.03544639,-0.036551675
12.08,0.003248089,0.034863871,0.069137168
12.09,0.002150392,0.03420891,-0.037043099
12.1,0.00100432,0.033359839,0.064721117
12.11,0.000421284,0.032314035,-0.041606606
12.12,0.000400676,0.031154979,0.061017143
12.13,0.000603397,0.0301576,-0.043027384
12.14,0.000316631,0.029511072,0.059064121
12.15,-0.000614176,0.029247701,-0.046338399
12.16,-0.002172206,0.029219951,0.052690706
12.17,-0.003736797,0.029300736,-0.052888418
12.18,-0.004989514,0.02940269,0.047786846
12.19,-0.005779105,0.029681093,-0.052825727
12.2,-0.006463201,0.030140848,0.051269423
12.21,-0.007347387,0.030799512,-0.047127817
12.22,-0.008585429,0.031343372,0.055335035
12.23,-0.0099297,0.03156691,-0.044564621
12.24,-0.011040286,0.031323005,0.055909646
12.25,-0.011589004,0.030802117,-0.043158765
12.26,-0.011630202,0.030186213,0.057017004
12.27,-0.011460431,0.029701458,-0.042421315
12.28,-0.011588561,0.029280381,0.053812781
12.29,-0.012174725,0.028852195,-0.048549752
12.3,-0.013257756,0.028298237,0.045817815
12.31,-0.01442031,0.027839381,-0.052911893
12.32,-0.015384591,0.027643533,0.046553957
12.33,-0.015846314,0.028010238,-0.045873131
12.34,-0.016071703,0.028665861,0.054791244
12.35,-0.016317639,0.029297932,-0.039904654
12.36,-0.016966255,0.029391692,0.054450684
12.37,-0.017980741,0.028885105,-0.044025384
12.38,-0.019139558,0.027958847,0.048149958
12.39,-0.020004087,0.027169901,-0.048210033
12.4,-0.020385002,0.026853615,0.044933594
12.41,-0.020497196,0.026984876,-0.050153955
12.42,-0.02088046,0.027196575,0.041663455
12.43,-0.021928666,0.02725474,-0.051558917
12.44,-0.023679065,0.027144782,0.043567718
12.45,-0.025600287,0.027382444,-0.042192902
12.46,-0.027111367,0.028224094,0.057257148
12.47,-0.027742806,0.029808849,-0.028237761
12.48,-0.027904996,0.031432161,0.063452238
12.49,-0.028159853,0.032473863,-0.031240091
12.5,-0.029139011,0.032420049,0.051683827
12.51,-0.030607366,0.031733092,-0.043774427
12.52,-0.031826387,0.031145485,0.043132189
12.53,-0.031913584,0.031393924,-0.044448999
12.54,-0.03053823,0.032489653,0.04565259
12.55,-0.028320651,0.033746785,-0.041165189
12.56,-0.026336905,0.03426641,0.045212173
12.57,-0.025376372,0.033651794,-0.042205756
12.58,-0.025175857,0.03239195,0.044735621
12.59,-0.024693501,0.031454513,-0.038406944
12.6,-0.022996005,0.031305116,0.048843452
12.61,-0.019844016,0.031768627,-0.036776133
12.62,-0.016266901,0.031667211,0.042539181
12.63,-0.013432952,0.030255775,-0.047999305
12.64,-0.012289322,0.027100308,0.030326556
12.65,-0.012017819,0.02338295,-0.052764935
12.66,-0.011443743,0.02016866,0.034015548
12.67,-0.009502985,0.01811912,-0.041362632
12.68,-0.006473257,0.016667165,0.044177751
12.69,-0.003755309,0.014636746,-0.036385577
12.7,-0.002739564,0.011230216,0.040805254
12.71,-0.004092852,0.006603504,-0.041676137
12.72,-0.006473502,0.002109008,0.037217715
12.73,-0.008141888,-0.000824614,-0.037883199
12.74,-0.007906229,-0.001807493,0.045075909
12.75,-0.006179133,-0.001609316,-0.028016777
12.76,-0.004633474,-0.001761231,0.051005169
12.77,-0.004652662,-0.00297647,-0.024122347
12.78,-0.006681992,-0.005128893,0.053595727
12.79,-0.00916013,-0.006756174,-0.01782888
12.8,-0.010434267,-0.006827212,0.061400456
12.81,-0.009460389,-0.005023267,-0.009817812
12.82,-0.007236898,-0.002559395,0.06301308
12.83,-0.005583482,-0.00084484,-0.014627194
12.84,-0.005831791,-0.000554059,0.051738166
12.85,-0.007915173,-0.001211398,-0.024158524
12.86,-0.010103782,-0.00152026,0.046810511
12.87,-0.010704911,-0.000498147,-0.020496451
12.88,-0.008982137,0.001783672,0.053873312
12.89,-0.006300731,0.00413187,-0.012833554
12.9,-0.00464045,0.00503069,0.055105902
12.91,-0.005065991,0.004203188,-0.016601861
12.92,-0.007158685,0.002239837,0.046582697
12.93,-0.008911442,0.000774124,-0.023626914
12.94,-0.008817211,0.000662086,0.041306959
12.95,-0.006171724,0.00217655,-0.024412131
12.96,-0.00271899,0.003937558,0.040992976
12.97,-0.000262377,0.004813606,-0.023679864
12.98,0.000113289,0.004267151,0.039930136
12.99,-0.000995201,0.002980957,-0.023156199
13,-0.001947135,0.002119831,0.04062119
13.01,-0.001498616,0.002438275,-0.020034271
13.02,0.000524802,0.003783683,0.041481877
13.03,0.002661397,0.005037921,-0.021633844
13.04,0.003418128,0.005076955,0.033237585
13.05,0.002215092,0.003692247,-0.03305784
13.06,-7.49E-05,0.001618801,0.019635385
13.07,-0.001808063,0.000273331,-0.041237986
13.08,-0.002067695,0.00025124,0.017604227
13.09,-0.000875757,0.001557778,-0.034335409
13.1,0.00033287,0.002928414,0.027854433
13.11,0.000339112,0.00339254,-0.023220433
13.12,-0.001384368,0.0023933,0.032784887
13.13,-0.003887688,0.000688685,-0.023387407
13.14,-0.005793935,-0.000752827,0.026428077
13.15,-0.006264552,-0.001211294,-0.029994473
13.16,-0.005379256,-0.000848578,0.020211149
13.17,-0.004231506,-0.00049813,-0.031917366
13.18,-0.003845056,-0.000993986,0.019228119
13.19,-0.004735178,-0.002567068,-0.030472151
13.2,-0.00626241,-0.004534587,0.020100087
13.21,-0.007532492,-0.005862265,-0.026352175
13.22,-0.007944955,-0.006073636,0.025932788
13.23,-0.007556906,-0.005302944,-0.01661397
13.24,-0.007029684,-0.004529523,0.033606669
13.25,-0.006919582,-0.004486323,-0.012678878
13.26,-0.00743086,-0.00568637,0.027255897
13.27,-0.008002685,-0.007396756,-0.026131457
13.28,-0.008002859,-0.008863977,0.009101583
13.29,-0.007090122,-0.009355557,-0.039521535
13.3,-0.00553003,-0.008962715,0.002806506
13.31,-0.004011403,-0.008162332,-0.035083217
13.32,-0.003159776,-0.007676429,0.011424577
13.33,-0.003355635,-0.007775508,-0.025351836
13.34,-0.004252063,-0.00816034,0.015939287
13.35,-0.005362243,-0.008215414,-0.023066166
13.36,-0.006166508,-0.007499438,0.016070251
13.37,-0.006525842,-0.006035978,-0.019538768
13.38,-0.00653634,-0.004282805,0.020045045
13.39,-0.006548923,-0.002781294,-0.015156921
13.4,-0.006819178,-0.001895344,0.018334091
13.41,-0.007417001,-0.001356064,-0.020940927
13.42,-0.008247582,-0.000738628,0.008580555
13.43,-0.009147276,0.000546822,-0.026658657
13.44,-0.009993782,0.002490523,0.007452143
13.45,-0.010781066,0.004875676,-0.020828629
13.46,-0.011624089,0.007001861,0.013185819
13.47,-0.012675016,0.008407198,-0.017423314
13.48,-0.013998047,0.008922474,0.009518648
13.49,-0.015486338,0.008946501,-0.022684598
13.5,-0.016834397,0.008998271,0.005273371
13.51,-0.017753879,0.009493082,-0.019062384
13.52,-0.017984986,0.010419804,0.013588802
13.53,-0.017676043,0.011335371,-0.007404386
13.54,-0.017125519,0.011698398,0.019894439
13.55,-0.016746558,0.011238885,-0.006701591
13.56,-0.016664405,0.010233795,0.01328748
13.57,-0.016768051,0.009299028,-0.01310296
13.58,-0.01667152,0.008917545,0.008134918
13.59,-0.016126563,0.009231206,-0.012873859
13.6,-0.015235161,0.009714229,0.008650748
13.61,-0.014442069,0.009793265,-0.012338851
13.62,-0.01435072,0.0090076,0.004758743
13.63,-0.015119695,0.007737689,-0.016151968
13.64,-0.016605894,0.006628951,0.001580745
13.65,-0.018172343,0.006321348,-0.013497911
13.66,-0.019291123,0.006865297,0.006251021
13.67,-0.019787751,0.007669292,-0.007399845
13.68,-0.019945917,0.007956231,0.007026497
13.69,-0.02021931,0.007150224,-0.010587312
13.7,-0.020749714,0.005691691,-0.001173917
13.71,-0.021325917,0.004346158,-0.016449981
13.72,-0.021360612,0.003883178,-0.004452251
13.73,-0.020503954,0.004416532,-0.013661149
13.74,-0.018680288,0.005386561,-0.001039032
13.75,-0.016459121,0.005973274,-0.009952095
13.76,-0.014358784,0.005583669,-0.002233715
13.77,-0.012629033,0.004538486,-0.012592265
13.78,-0.011037122,0.003457443,-0.006908303
13.79,-0.009093733,0.003000287,-0.013995458
13.8,-0.00652239,0.003158115,-0.007209338
13.81,-0.003439477,0.003401933,-0.010979551
13.82,-0.000441066,0.003042741,-0.005248212
13.83,0.001808763,0.001727946,-0.007872025
13.84,0.003079538,-7.30E-05,-0.003660583
13.85,0.003486376,-0.00159704,-0.004049045
13.86,0.003421009,-0.002095446,-0.000591297
13.87,0.003168198,-0.001665701,0.000119112
13.88,0.002714063,-0.000844867,-0.000474388
13.89,0.001810681,-0.000479404,-0.002255832
13.9,0.000235199,-0.000949257,-0.008149514
13.91,-0.002039968,-0.001908872,-0.010407897
13.92,-0.00471491,-0.002631654,-0.017055571
13.93,-0.007478439,-0.002416078,-0.014594887
13.94,-0.010048422,-0.001406189,-0.018551133
13.95,-0.012373957,-0.000170698,-0.010749125
13.96,-0.014526072,0.000524606,-0.013294391
13.97,-0.016629878,0.000395664,-0.002275588
13.98,-0.01865036,-0.000162077,-0.00552057
13.99,-0.020520272,-0.000482064,0.006837502
14,-0.02193903,-5.74E-06,0.00066222
14.01,-0.022809345,0.000919618,0.011986533
14.02,-0.022943177,0.001665874,0.001309009
14.03,-0.022464324,0.001574264,0.011603558
14.04,-0.021556247,0.000699983,-0.001609874
14.05,-0.020527254,-0.00033249,0.010762394
14.06,-0.019541964,-0.000728183,-0.00254519
14.07,-0.018661993,-8.71E-05,0.012338093
14.08,-0.017679099,0.001072839,-0.002536362
14.09,-0.016450724,0.001932518,0.01271172
14.1,-0.014877907,0.001869954,-0.004892088
14.11,-0.013164091,0.001041063,0.011376186
14.12,-0.011515409,0.000176736,-0.007028019
14.13,-0.010077376,-6.58E-05,0.01191003
14.14,-0.008714138,0.000510793,-0.007169865
14.15,-0.007189421,0.001211068,0.013256036
14.16,-0.005305871,0.001331497,-0.007779085
14.17,-0.003213581,0.000411268,0.01404084
14.18,-0.001256964,-0.001018905,-0.00761231
14.19,4.89E-05,-0.002204521,0.017228746
14.2,0.000686227,-0.002625112,-0.004807636
14.21,0.000795053,-0.002503274,0.020860523
14.22,0.00084834,-0.002646435,-0.005159251
14.23,0.001038108,-0.003717618,0.01870043
14.24,0.00133372,-0.005793171,-0.010956343
14.25,0.001374896,-0.00802713,0.014511338
14.26,0.000925987,-0.009363921,-0.014028613
14.27,4.43E-05,-0.009403399,0.016076055
14.28,-0.000923323,-0.008400179,-0.012140275
14.29,-0.001713473,-0.007234229,0.018738512
14.3,-0.002336,-0.006409448,-0.013231216
14.31,-0.003231989,-0.00588731,0.016989443
14.32,-0.004726364,-0.004835638,-0.016590209
14.33,-0.006977925,-0.002556345,0.017207408
14.34,-0.009504625,0.001079671,-0.014809641
14.35,-0.011767503,0.005334201,0.022222628
14.36,-0.013202649,0.009238164,-0.011805094
14.37,-0.013990745,0.01222645,0.024260474
14.38,-0.014387953,0.014399035,-0.013666667
14.39,-0.014805327,0.016440584,0.022727696
14.4,-0.015158657,0.018930112,-0.015867831
14.41,-0.015065621,0.021765277,0.023171728
14.42,-0.014168745,0.024408772,-0.016554306
14.43,-0.012339982,0.025929224,0.022342892
14.44,-0.010096133,0.026336168,-0.020950508
14.45,-0.008013436,0.025886823,0.018470485
14.46,-0.006358741,0.025493965,-0.024491801
14.47,-0.004994336,0.025574462,0.02016635
14.48,-0.003370213,0.026136722,-0.020169138
14.49,-0.001264765,0.026484034,0.02748652
14.5,0.001251628,0.025964575,-0.016458839
14.51,0.003470139,0.024416967,0.027607887
14.52,0.004805808,0.02225507,-0.022837474
14.53,0.004944307,0.020149508,0.019568959
14.54,0.004298888,0.018642505,-0.031974333
14.55,0.003355233,0.01782206,0.014636001
14.56,0.002568191,0.017336208,-0.034754102
14.57,0.001830825,0.016744218,0.015597955
14.58,0.00075413,0.015980599,-0.033963232
14.59,-0.001037825,0.015141613,0.018075056
14.6,-0.003513167,0.014642184,-0.032212734
14.61,-0.006228081,0.014494073,0.02208909
14.62,-0.008583775,0.014633378,-0.02874308
14.63,-0.010441997,0.014545031,0.0265794
14.64,-0.011956908,0.013962259,-0.027158588
14.65,-0.01369227,0.012746768,0.027255043
14.66,-0.015899575,0.011259648,-0.029176803
14.67,-0.018574233,0.009838241,0.026980257
14.68,-0.021160192,0.008820607,-0.028555471
14.69,-0.023163132,0.008176811,0.031569731
14.7,-0.024404977,0.007733235,-0.023597289
14.71,-0.025156702,0.007161502,0.037142787
14.72,-0.025856834,0.006420793,-0.02204264
14.73,-0.026819541,0.005540197,0.036338435
14.74,-0.027934472,0.004866923,-0.026954421
14.75,-0.028793344,0.004519538,0.031593497
14.76,-0.028883674,0.004721693,-0.031777432
14.77,-0.028050193,0.005322364,0.030479464
14.78,-0.026408001,0.006259079,-0.031390549
14.79,-0.024213207,0.007285302,0.034047556
14.8,-0.02165427,0.008347383,-0.028284938
14.81,-0.018651438,0.009256942,0.037728397
14.82,-0.015026527,0.010056556,-0.027263406
14.83,-0.010726612,0.010615606,0.038098729
14.84,-0.005909887,0.010996109,-0.029822605
14.85,-0.001035658,0.011117283,0.035419143
14.86,0.003434391,0.011035532,-0.034253618
14.87,0.007290065,0.010714035,0.032265304
14.88,0.010523952,0.010276446,-0.03769865
14.89,0.013321898,0.00973374,0.031299524
14.9,0.015882111,0.009280575,-0.038312379
14.91,0.018186411,0.008897396,0.033058785
14.92,0.020213727,0.008625922,-0.037065064
14.93,0.021760506,0.008211886,0.035011375
14.94,0.022864465,0.007574019,-0.03751095
14.95,0.023503188,0.006523904,0.033887645
14.96,0.023782007,0.005278964,-0.041183159
14.97,0.023742657,0.004009851,0.03099834
14.98,0.023385733,0.003128993,-0.043655527
14.99,0.02272282,0.002574233,0.03240711
15,0.021750549,0.002315963,-0.040190583
15.01,0.020474256,0.001922178,0.039010149
15.02,0.01893804,0.001263374,-0.034627574
15.03,0.017115398,0.00019142,0.04351941
15.04,0.01509721,-0.001007604,-0.034232208
15.05,0.012893314,-0.002239877,0.042155564
15.06,0.010632423,-0.00334104,-0.038102572
15.07,0.008337141,-0.004471914,0.039329302
15.08,0.006049883,-0.005623694,-0.041146311
15.09,0.003734691,-0.006839097,0.037992228
15.1,0.001430295,-0.007764104,-0.043172124
15.11,-0.000822703,-0.008267996,0.037056695
15.12,-0.002877444,-0.008053376,-0.044555456
15.13,-0.004684292,-0.007381139,0.037735852
15.14,-0.006199998,-0.006400432,-0.043530371
15.15,-0.007494734,-0.005476132,0.040379703
15.16,-0.008629717,-0.004601826,-0.042281225
15.17,-0.009618034,-0.003823107,0.040986547
15.18,-0.010404932,-0.002948893,-0.04423773
15.19,-0.010899251,-0.002075316,0.039353999
15.2,-0.011015381,-0.001238506,-0.045923812
15.21,-0.010773497,-0.000659608,0.040320138
15.22,-0.010161057,-0.000309639,-0.044361222
15.23,-0.009302281,-0.000157121,0.042908189
15.24,-0.008222455,2.76E-05,-0.044107447
15.25,-0.007055477,0.000229625,0.041912885
15.26,-0.005889053,0.000499628,-0.047322857
15.27,-0.004867424,0.000642101,0.039701708
15.28,-0.004033548,0.000726251,-0.048839814
15.29,-0.003448166,0.000744593,0.040908335
15.3,-0.00302558,0.000920353,-0.047329485
15.31,-0.002769312,0.001221979,0.042954254
15.32,-0.002674508,0.001608926,-0.047137469
15.33,-0.002793523,0.001797826,0.042970199
15.34,-0.003131806,0.001712919,-0.048081475
15.35,-0.003586477,0.001355874,0.043287303
15.36,-0.003973477,0.001024086,-0.047985037
15.37,-0.00416567,0.000846648,0.044086302
15.38,-0.004128605,0.000946854,-0.048652442
15.39,-0.00400778,0.001035429,0.04333836
15.4,-0.003946305,0.000968226,-0.050297079
15.41,-0.00401706,0.000534615,0.043229666
15.42,-0.004085011,3.29E-05,-0.049765316
15.43,-0.003961945,-0.00030421,0.04543648
15.44,-0.003563071,-0.00020609,-0.048271317
15.45,-0.002992646,0.00014564,0.046458247
15.46,-0.00251063,0.000453715,-0.049539557
15.47,-0.002299675,0.000348275,0.044666597
15.48,-0.002409589,-0.000170652,-0.052041411
15.49,-0.002598765,-0.000780249,0.043698532
15.5,-0.002629424,-0.000979572,-0.052368306
15.51,-0.002401064,-0.000675749,0.044907463
15.52,-0.002042143,-4.98E-05,-0.051583018
15.53,-0.001828739,0.000306632,0.045921496
15.54,-0.001921209,0.000208637,-0.051578865
15.55,-0.002338203,-0.000333223,0.046423475
15.56,-0.002833664,-0.000706876,-0.051452069
15.57,-0.003169764,-0.00057976,0.047234823
15.58,-0.003222949,0.000108046,-0.051481636
15.59,-0.003096628,0.000800268,0.047082862
15.6,-0.003004939,0.000923761,-0.052820601
15.61,-0.003086227,0.000343684,0.046081141
15.62,-0.003332361,-0.00055034,-0.053812527
15.63,-0.003510945,-0.001141082,0.046494426
15.64,-0.003412124,-0.001024546,-0.053116343
15.65,-0.002916436,-0.000414687,0.0479178
15.66,-0.002245814,0.000156197,-0.052459086
15.67,-0.001745073,0.000103472,0.048446407
15.68,-0.001703091,-0.000412236,-0.052904299
15.69,-0.002150344,-0.001009831,0.04818134
15.7,-0.002780117,-0.001092136,-0.053678894
15.71,-0.003174898,-0.000696505,0.047799714
15.72,-0.003010342,-0.000201494,-0.054540509
15.73,-0.00245224,-0.000234602,0.047272074
15.74,-0.001867023,-0.001005764,-0.055397329
15.75,-0.001625315,-0.002133894,0.047065115
15.76,-0.001788502,-0.002933477,-0.055511989
15.77,-0.00201766,-0.002948195,0.047857062
15.78,-0.001943763,-0.00233475,-0.054641784
15.79,-0.001348686,-0.001687065,0.049185042
15.8,-0.000634501,-0.001487136,-0.053873872
15.81,-0.000317104,-0.00186299,0.049768843
15.82,-0.000793919,-0.002287857,-0.054150686
15.83,-0.00184872,-0.002310221,0.04942353
15.84,-0.002868779,-0.001632904,-0.054879908
15.85,-0.003236575,-0.00071171,0.049041789
15.86,-0.002719234,-4.46E-05,-0.055480081
15.87,-0.00181182,4.16E-05,0.048612819
15.88,-0.00118712,-0.000240721,-0.056319078
15.89,-0.00128125,-0.00040722,0.04796571
15.9,-0.001875931,-0.000107312,-0.056976389
15.91,-0.002317157,0.00058035,0.048020633
15.92,-0.002138124,0.001139605,-0.056567474
15.93,-0.00128821,0.00103673,0.048984658
15.94,-0.000443147,0.000238054,-0.05571301
15.95,-0.000214192,-0.000895672,0.049840715
15.96,-0.000961056,-0.001713502,-0.055275186
15.97,-0.002128369,-0.001981925,0.050223375
15.98,-0.002979982,-0.001750525,-0.055198957
15.99,-0.002998485,-0.001559177,0.050189855
16,-0.002325306,-0.001733401,-0.05575592
16.01,-0.001639753,-0.002288905,0.049222624
16.02,-0.001562407,-0.002836068,-0.057219951
16.03,-0.002267306,-0.002933872,0.047893279
16.04,-0.003139802,-0.002541396,-0.05803524
16.05,-0.003407213,-0.00192824,0.048169334
16.06,-0.002766346,-0.001555909,-0.056776245
16.07,-0.001503531,-0.001662271,0.05004389
16.08,-0.000466477,-0.002102426,-0.055081
16.09,-0.000169249,-0.002477781,0.051064425
16.1,-0.000786679,-0.002409429,-0.054972944
16.11,-0.00159765,-0.001990485,0.050501289
16.12,-0.001986796,-0.001532607,-0.055762744
16.13,-0.001617464,-0.001471405,0.049765214
16.14,-0.000872388,-0.001887781,-0.056305726
16.15,-0.000370284,-0.002583619,0.04931045
16.16,-0.000501043,-0.003121699,-0.056598701
16.17,-0.001144207,-0.003216563,0.049178107
16.18,-0.001709301,-0.002968789,-0.056320981
16.19,-0.00164326,-0.002676979,0.04968848
16.2,-0.000864676,-0.002659966,-0.055666955
16.21,0.000190229,-0.002913642,0.049940617
16.22,0.00081512,-0.00320323,-0.05586998
16.23,0.000787363,-0.003203797,0.049140589
16.24,0.000212109,-0.002774438,-0.056550894
16.25,-0.000251785,-0.002093999,0.048860056
16.26,-0.000206392,-0.001489084,-0.05580299
16.27,0.000511317,-0.001250917,0.050197725
16.28,0.001375552,-0.001350815,-0.054122008
16.29,0.001870794,-0.001603198,0.051019758
16.3,0.001692498,-0.001772687,-0.054339248
16.31,0.001031053,-0.001782854,0.049362037
16.32,0.000310516,-0.00179778,-0.056468874
16.33,-8.09E-05,-0.001983139,0.047150611
16.34,-0.000113984,-0.002472131,-0.057525888
16.35,-9.58E-05,-0.003049375,0.047025881
16.36,-0.000412721,-0.003472249,-0.056460218
16.37,-0.00107835,-0.003515722,0.048329122
16.38,-0.001880285,-0.003243179,-0.054820927
16.39,-0.002300666,-0.002860797,0.049457345
16.4,-0.002194249,-0.002651622,-0.053780544
16.41,-0.001526043,-0.002717701,0.049595114
16.42,-0.000775655,-0.002940135,-0.054119304
16.43,-0.000237279,-0.003084474,0.048119715
16.44,-0.000102701,-0.003032231,-0.05568906
16.45,-0.000136045,-0.002794711,0.046532351
16.46,-7.72E-05,-0.002553122,-0.055615336
16.47,0.000291396,-0.002388302,0.047969118
16.48,0.000881672,-0.002340382,-0.052520203
16.49,0.00145689,-0.002252548,0.050735175
16.5,0.001701946,-0.002089493,-0.050812902
16.51,0.001531626,-0.001844144,0.049512139
16.52,0.001058941,-0.001697433,-0.054032846
16.53,0.000598692,-0.001757935,0.044640545
16.54,0.00033317,-0.002047428,-0.058077834
16.55,0.000385399,-0.00240743,0.04196717
16.56,0.000543421,-0.002717181,-0.057808116
16.57,0.000653005,-0.002862039,0.044020099
16.58,0.000504618,-0.002935222,-0.053673816
16.59,0.000259985,-0.003007183,0.048412205
16.6,8.61E-05,-0.003223279,-0.04897595
16.61,0.000240375,-0.00351388,0.051469859
16.62,0.00066431,-0.003875694,-0.047432875
16.63,0.001154816,-0.00417471,0.049710374
16.64,0.001349047,-0.004442011,-0.051340914
16.65,0.001073403,-0.004583128,0.043584682
16.66,0.000506159,-0.004644655,-0.056799973
16.67,8.12E-05,-0.004508,0.039719794
16.68,0.000119054,-0.004225631,-0.056605058
16.69,0.000697408,-0.003780529,0.042754337
16.7,0.001447889,-0.003350198,-0.050783217
16.71,0.001980321,-0.002975289,0.048243733
16.72,0.001954663,-0.002807055,-0.046272897
16.73,0.00165429,-0.002748808,0.049592751
16.74,0.001421481,-0.0028358,-0.046705282
16.75,0.001681712,-0.002950993,0.046769667
16.76,0.002295746,-0.003142105,-0.049661182
16.77,0.002915593,-0.003296635,0.043132584
16.78,0.003052427,-0.003426842,-0.052133834
16.79,0.002603028,-0.003367885,0.040808352
16.8,0.001874843,-0.003179384,-0.052628735
16.81,0.001399854,-0.002842461,0.040838222
16.82,0.00144488,-0.002580796,-0.050769906
16.83,0.001827146,-0.002412939,0.042597664
16.84,0.001974002,-0.002464372,-0.048353973
16.85,0.001556695,-0.002539873,0.043657163
16.86,0.00053823,-0.00262313,-0.04728375
16.87,-0.000461658,-0.002583991,0.043518905
16.88,-0.000932286,-0.002580537,-0.046575716
16.89,-0.000423158,-0.002652289,0.043858677
16.9,0.000606477,-0.002930693,-0.045165538
16.91,0.001663813,-0.003287945,0.044100556
16.92,0.002204991,-0.00368232,-0.045206613
16.93,0.0022832,-0.003925858,0.041763359
16.94,0.002267864,-0.004097642,-0.047931776
16.95,0.002642231,-0.004166262,0.037871696
16.96,0.003520948,-0.004267639,-0.050036501
16.97,0.004520168,-0.004264336,0.036754973
16.98,0.005035991,-0.004153409,-0.04820056
16.99,0.004785144,-0.00376314,0.039376104
17,0.003912099,-0.003252449,-0.044030781
17.01,0.003037017,-0.002692795,0.042175198
17.02,0.002609488,-0.002381673,-0.041663167
17.03,0.002861063,-0.002364798,0.041815224
17.04,0.003283556,-0.002687306,-0.042928762
17.05,0.003393892,-0.003111146,0.038323096
17.06,0.002787831,-0.003572347,-0.045944626
17.07,0.001771444,-0.003881379,0.034928036
17.08,0.000880185,-0.004134093,-0.046724663
17.09,0.000649381,-0.004289301,0.035454006
17.1,0.001144636,-0.004491857,-0.043035392
17.11,0.001931194,-0.004619809,0.039691714
17.12,0.002397236,-0.004751128,-0.037549853
17.13,0.002233868,-0.004745492,0.042978062
17.14,0.001685182,-0.004758976,-0.035549784
17.15,0.001363605,-0.004748664,0.041135972
17.16,0.001645543,-0.004882714,-0.038931373
17.17,0.002560311,-0.005029414,0.035281822
17.18,0.003494292,-0.005194909,-0.043786366
17.19,0.003935436,-0.005140917,0.030679904
17.2,0.003481695,-0.00486295,-0.04507826
17.21,0.002635531,-0.004307413,0.030716176
17.22,0.001959615,-0.003697075,-0.042200223
17.23,0.001986393,-0.003078297,0.033436604
17.24,0.00261372,-0.002666653,-0.038424874
17.25,0.003368102,-0.002368736,0.035444422
17.26,0.003686272,-0.002252808,-0.036252222
17.27,0.003394537,-0.002183123,0.035588743
17.28,0.002907381,-0.00229046,-0.035753182
17.29,0.002827171,-0.002505184,0.034456252
17.3,0.003430458,-0.002977161,-0.036079983
17.31,0.00449214,-0.00352783,0.032859622
17.32,0.005300092,-0.004179777,-0.036498358
17.33,0.005407587,-0.004683991,0.03146164
17.34,0.004631774,-0.005074261,-0.036464754
17.35,0.003574411,-0.005220781,0.030643725
17.36,0.002787193,-0.005283872,-0.035838354
17.37,0.00267651,-0.005177221,0.030292366
17.38,0.002948373,-0.005066693,-0.034872573
17.39,0.003118993,-0.004819148,0.030186473
17.4,0.002778767,-0.004584724,-0.033631402
17.41,0.001986454,-0.004261081,0.030341732
17.42,0.00121136,-0.004046227,-0.032310053
17.43,0.000959126,-0.003869212,0.030088513
17.44,0.001432838,-0.003919771,-0.032036684
17.45,0.002285813,-0.004033256,0.028344633
17.46,0.002965948,-0.004292664,-0.032989226
17.47,0.003157549,-0.004469409,0.026344382
17.48,0.002876778,-0.004631866,-0.03280179
17.49,0.002593139,-0.004620911,0.026624307
17.5,0.002652329,-0.004603415,-0.030087006
17.51,0.003251835,-0.004487758,0.028495894
17.52,0.003975383,-0.004447363,-0.027415739
17.53,0.004400942,-0.004353401,0.028623747
17.54,0.004234744,-0.00431912,-0.02752627
17.55,0.003650682,-0.004190633,0.026005605
17.56,0.003075983,-0.004098514,-0.029365605
17.57,0.002914977,-0.003931697,0.023115056
17.58,0.003280493,-0.003854704,-0.029973924
17.59,0.003825724,-0.003744088,0.022515297
17.6,0.004100094,-0.003727834,-0.027920925
17.61,0.003854538,-0.003652103,0.024319645
17.62,0.003216653,-0.003648464,-0.024202538
17.63,0.002612288,-0.003614475,0.026588724
17.64,0.002371677,-0.00372431,-0.021371353
17.65,0.002640874,-0.003884846,0.026644975
17.66,0.003114738,-0.004206992,-0.021714766
17.67,0.003486586,-0.0044938,0.023356862
17.68,0.003532503,-0.004784947,-0.024553437
17.69,0.003417882,-0.004897229,0.019227209
17.7,0.003436704,-0.004940999,-0.026097286
17.71,0.003808114,-0.004843678,0.018118601
17.72,0.004479727,-0.004787226,-0.024081442
17.73,0.005119588,-0.004670589,0.019808802
17.74,0.005384405,-0.004624672,-0.020937807
17.75,0.005081595,-0.004505236,0.020679935
17.76,0.004443345,-0.004458824,-0.019900694
17.77,0.003824006,-0.004397607,0.019226508
17.78,0.003511036,-0.004490647,-0.020538866
17.79,0.00354078,-0.004602561,0.017093468
17.8,0.003647058,-0.004797334,-0.021030156
17.81,0.003550263,-0.004859071,0.015418218
17.82,0.003050941,-0.004842607,-0.021059808
17.83,0.002368823,-0.004658674,0.014196373
17.84,0.001807105,-0.004507507,-0.020398046
17.85,0.001662104,-0.004339943,0.014044826
17.86,0.001947283,-0.004296251,-0.018467269
17.87,0.002480892,-0.00419473,0.014830652
17.88,0.002970759,-0.004108492,-0.016396425
17.89,0.003269283,-0.003902779,0.014766774
17.9,0.003475779,-0.003785654,-0.015822609
17.91,0.003771735,-0.003713361,0.013222559
17.92,0.004265626,-0.003836084,-0.016192125
17.93,0.004841734,-0.003946881,0.011361231
17.94,0.005206521,-0.004043934,-0.016471783
17.95,0.005177255,-0.003954787,0.009659781
17.96,0.004723674,-0.003846612,-0.016578621
17.97,0.004139944,-0.003734948,0.008405113
17.98,0.003753489,-0.003832608,-0.015590371
17.99,0.003797925,-0.004000178,0.009008939
18,0.004158092,-0.004222529,-0.012370162
18.01,0.004558698,-0.004230237,0.011299863
18.02,0.004699342,-0.004146848,-0.008876685
18.03,0.004433108,-0.003957536,0.011946328
18.04,0.003860977,-0.003946743,-0.008712542
18.05,0.003171485,-0.004033737,0.00864691
18.06,0.00253034,-0.004232024,-0.011672151
18.07,0.001945294,-0.004233384,0.004144935
18.08,0.001386737,-0.004021067,-0.013429281
18.09,0.00083608,-0.003568987,0.002721832
18.1,0.000409639,-0.003183097,-0.011544514
18.11,0.000303881,-0.002946883,0.004226588
18.12,0.000624298,-0.002966614,-0.008182646
18.13,0.0013967,-0.002996888,0.00564606
18.14,0.002370092,-0.002983423,-0.00594623
18.15,0.003260864,-0.002802808,0.005561118
18.16,0.003852717,-0.002761348,-0.005244237
18.17,0.004092679,-0.002954791,0.004017892
18.18,0.004095225,-0.003604117,-0.005809177
18.19,0.004047932,-0.004376068,0.001670463
18.2,0.004105551,-0.005050685,-0.006196075
18.21,0.004234503,-0.005278398,0.000721008
18.22,0.004358078,-0.005149035,-0.004382493
18.23,0.004323461,-0.004773189,0.00173042
18.24,0.004147555,-0.004479128,-0.002044908
18.25,0.003881424,-0.004229915,0.001076771
18.26,0.003697186,-0.003968132,-0.003035895
18.27,0.003637226,-0.003415411,-0.002778934
18.28,0.003656789,-0.002697203,-0.005228833
18.29,0.003588925,-0.00195717,-0.004848392
18.3,0.003352822,-0.001666654,-0.003049478
18.31,0.00299529,-0.001818268,-0.001853725
18.32,0.002749329,-0.002396603,0.002486369
18.33,0.002760695,-0.002893146,0.001436064
18.34,0.003092308,-0.00312152,0.005419349
18.35,0.003496468,-0.002986434,0.00051107
18.36,0.003744544,-0.002835365,0.004283569
18.37,0.003586323,-0.002876736,-0.003211774
18.38,0.003199247,-0.003194151,0.0017876
18.39,0.002784548,-0.0034917,-0.007116234
18.4,0.002622425,-0.003566699,0.00011859
18.41,0.002686141,-0.003281926,-0.009087748
18.42,0.002814094,-0.002961086,0.001682531
18.43,0.00274775,-0.002843347,-0.007031437
18.44,0.002447429,-0.003214594,0.006605144
18.45,0.002093601,-0.003747895,-0.003945523
18.46,0.001998059,-0.004159167,0.00918495
18.47,0.00224391,-0.004079088,-0.006053618
18.48,0.002718609,-0.003655964,0.005972562
18.49,0.003040998,-0.003132455,-0.011776516
18.5,0.003063287,-0.002887823,0.003014766
18.51,0.002761599,-0.002929487,-0.013453657
18.52,0.002531025,-0.003056306,0.006063823
18.53,0.002621236,-0.002920975,-0.009905207
18.54,0.003165899,-0.002497568,0.011646271
18.55,0.003843972,-0.001955996,-0.006877516
18.56,0.004310605,-0.001748097,0.014370393
18.57,0.00435475,-0.00194611,-0.007742868
18.58,0.004121877,-0.002510042,0.013410498
18.59,0.003926609,-0.002984364,-0.011530788
18.6,0.00406784,-0.003149991,0.010554934
18.61,0.004490659,-0.002892077,-0.015770938
18.62,0.004926093,-0.002563154,0.008977625
18.63,0.004958642,-0.002430546,-0.016943497
18.64,0.004591323,-0.002634337,0.011620324
18.65,0.003963869,-0.002962109,-0.014238386
18.66,0.003506989,-0.00313872,0.016211288
18.67,0.003318378,-0.00297553,-0.012375057
18.68,0.003355636,-0.002594086,0.017296977
18.69,0.003199397,-0.002275228,-0.015271524
18.7,0.00263492,-0.002313732,0.014524678
18.71,0.001682399,-0.002627014,-0.019641112
18.72,0.000742064,-0.002998613,0.012989379
18.73,0.00020825,-0.003037406,-0.020711416
18.74,0.000251068,-0.002709705,0.015374117
18.75,0.000700681,-0.002096317,-0.018638392
18.76,0.001206303,-0.001577282,0.01940418
18.77,0.001455058,-0.001334608,-0.016533355
18.78,0.001544599,-0.001382181,0.022119575
18.79,0.001664594,-0.001473495,-0.016539726
18.8,0.002184958,-0.001399528,0.022392517
18.81,0.002998911,-0.001125959,-0.018823799
18.82,0.003941507,-0.000844023,0.021087963
18.83,0.004575858,-0.000784671,-0.021706095
18.84,0.004802351,-0.001078803,0.020092593
18.85,0.004648655,-0.001591689,-0.023681661
18.86,0.004487499,-0.002075041,0.02009708
18.87,0.004497121,-0.002251368,-0.024904355
18.88,0.004694241,-0.002164295,0.020558738
18.89,0.00477078,-0.00195902,-0.025757516
18.9,0.004506383,-0.001901116,0.021557107
18.91,0.00378148,-0.002058751,-0.02574938
18.92,0.002848747,-0.002356286,0.023705736
18.93,0.00199518,-0.002580061,-0.024472659
18.94,0.001579922,-0.002612905,0.02689391
18.95,0.001505577,-0.002537751,-0.022711721
18.96,0.001657914,-0.002540862,0.029668076
18.97,0.001696857,-0.002774268,-0.022474863
18.98,0.001604262,-0.003184868,0.029948791
18.99,0.001376995,-0.003567988,-0.025211706
19,0.00128847,-0.003718804,0.027499981
19.01,0.001390196,-0.00354764,-0.029479396
19.02,0.001691679,-0.003180949,0.025213158
19.03,0.001935066,-0.002799719,-0.031993239
19.04,0.001984556,-0.002524377,0.025689502
19.05,0.001757505,-0.002324746,-0.031682657
19.06,0.001460423,-0.002092091,0.02807104
19.07,0.001279826,-0.001777395,-0.030752764
19.08,0.001472587,-0.001409103,0.029996012
19.09,0.00195782,-0.001114185,-0.030714966
19.1,0.0026142,-0.000932534,0.03125815
19.11,0.003101538,-0.000850818,-0.030778327
19.12,0.003386958,-0.000732736,0.032806206
19.13,0.003426896,-0.000521817,-0.030561223
19.14,0.003515933,-0.000253054,0.03432142
19.15,0.003733379,-7.94E-05,-0.03069363
19.16,0.004164709,-0.000128171,0.035261605
19.17,0.004531987,-0.00041283,-0.031546504
19.18,0.004627553,-0.000828297,0.035181814
19.19,0.004286885,-0.001241714,-0.033828799
19.2,0.003663936,-0.001549336,0.033463047
19.21,0.00296135,-0.001797076,-0.037350674
19.22,0.002471838,-0.002005624,0.03161346
19.23,0.00218194,-0.0022066,-0.039361873
19.24,0.001981716,-0.002303279,0.032637932
19.25,0.001577965,-0.002237138,-0.038105053
19.26,0.000998602,-0.001992194,0.036232714
19.27,0.00031472,-0.001719887,-0.035738218
19.28,-8.24E-05,-0.001572769,0.039334772
19.29,-0.000114909,-0.00167753,-0.034868328
19.3,0.000329296,-0.002000601,0.04065021
19.31,0.000865028,-0.002410141,-0.035511686
19.32,0.001312337,-0.002722308,0.040929609
19.33,0.001474978,-0.002926633,-0.036835413
19.34,0.001548705,-0.003036266,0.04061431
19.35,0.001699592,-0.003205975,-0.038741169
19.36,0.002129582,-0.003424126,0.039765876
19.37,0.002721357,-0.003688746,-0.040926989
19.38,0.003290315,-0.003820973,0.038959319
19.39,0.003527438,-0.003778528,-0.042770796
19.4,0.003431744,-0.003499053,0.038676487
19.41,0.003089362,-0.003135264,-0.043925417
19.42,0.002824303,-0.002736421,0.039380397
19.43,0.00270316,-0.00241507,-0.043577915
19.44,0.002785247,-0.002099743,0.042012914
19.45,0.002790728,-0.001803383,-0.041234269
19.46,0.002635018,-0.001461316,0.045952982
19.47,0.002194013,-0.001208915,-0.038977222
19.48,0.001712186,-0.00106937,0.048203527
19.49,0.001331407,-0.001197633,-0.039576504
19.5,0.00123533,-0.001467808,0.047221192
19.51,0.001311656,-0.001837138,-0.042787513
19.52,0.00145754,-0.002072373,0.044723275
19.53,0.00145653,-0.002152632,-0.046378487
19.54,0.001350946,-0.001964711,0.042787587
19.55,0.001206441,-0.001684915,-0.048713262
19.56,0.001267853,-0.001347307,0.04254825
19.57,0.001519111,-0.001134948,-0.04902757
19.58,0.001954525,-0.001021661,0.044359321
19.59,0.002303907,-0.001081014,-0.047539389
19.6,0.002508832,-0.001184454,0.047433473
19.61,0.00244575,-0.001383748,-0.045485582
19.62,0.00233796,-0.001594799,0.050375319
19.63,0.002256741,-0.001924374,-0.044095969
19.64,0.002356148,-0.002302148,0.052195726
19.65,0.00251016,-0.002763701,-0.044149693
19.66,0.002663029,-0.00312524,0.052252579
19.67,0.002657923,-0.003380809,-0.046162006
19.68,0.002553399,-0.003381307,0.05039687
19.69,0.002374386,-0.003263161,-0.049686402
19.7,0.002271778,-0.003017385,0.047797003
19.71,0.002193814,-0.002796547,-0.052840086
19.72,0.002152109,-0.00252404,0.046643707
19.73,0.001993373,-0.002239024,-0.053648197
19.74,0.001788214,-0.001837696,0.048243263
19.75,0.001534236,-0.001437442,-0.051957515
19.76,0.00142605,-0.001064606,0.051562182
19.77,0.001471192,-0.000918366,-0.049581028
19.78,0.001753815,-0.00100932,0.054393536
19.79,0.002100956,-0.00137058,-0.048569957
19.8,0.002467189,-0.001828703,0.055415719
19.81,0.002702202,-0.002312117,-0.04928593
19.82,0.002848832,-0.002614132,0.055181443
19.83,0.002873337,-0.00275825,-0.050662797
19.84,0.002884025,-0.002672578,0.054628054
19.85,0.002823435,-0.002462635,-0.052291814
19.86,0.00273806,-0.002096555,0.053660399
19.87,0.002527705,-0.001676586,-0.054369342
19.88,0.002261648,-0.001136292,0.052442686
19.89,0.001930257,-0.000612415,-0.056206909
19.9,0.001690697,-0.00010114,0.052020271
19.91,0.001541748,0.00021645,-0.056777071
19.92,0.00156824,0.000327432,0.053138517
19.93,0.001624981,0.000152723,-0.055600443
19.94,0.00168267,-0.000176341,0.055993724
19.95,0.001633443,-0.000661262,-0.052938527
19.96,0.001578387,-0.001124874,0.059588728
19.97,0.001580569,-0.001610125,-0.050829975
19.98,0.001769062,-0.001998691,0.061098877
19.99,0.002099196,-0.002356698,-0.051933175
20,0.002491252,-0.002551378,0.059028691
20.01,0.002752067,-0.002633969,-0.055856499
20.02,0.002847056,-0.002454955,0.055660002
20.03,0.002791363,-0.002129877,-0.05936747
20.04,0.002761239,-0.001569878,0.054089702
20.05,0.002794265,-0.000979336,-0.0602929
20.06,0.002910401,-0.000356369,0.055107375
20.07,0.002904605,8.58E-05,-0.058989099
20.08,0.002702832,0.000382501,0.057775923
20.09,0.002226571,0.00038718,-0.056680462
20.1,0.001702708,0.000264319,0.060741687
20.11,0.001308413,-3.54E-05,-0.054827517
20.12,0.001203152,-0.00033073,0.062479087
20.13,0.001292811,-0.000685769,-0.054696311
20.14,0.001413751,-0.000988557,0.06230463
20.15,0.00136041,-0.001328888,-0.056235044
20.16,0.001127747,-0.001557443,0.060923823
20.17,0.000860736,-0.00170942,-0.058485631
20.18,0.000806568,-0.001597808,0.059181071
20.19,0.001007647,-0.001304525,-0.060781116
20.2,0.001392843,-0.000785028,0.057738356
20.21,0.001679867,-0.000247712,-0.062167129
20.22,0.001757927,0.000289796,0.057864628
20.23,0.00158458,0.000648271,-0.06145047
20.24,0.001429118,0.000932404,0.060187395
20.25,0.001467915,0.001055847,-0.059009818
20.26,0.001796327,0.00110827,0.063274239
20.27,0.002211483,0.000961261,-0.056861438
20.28,0.002455302,0.000633271,0.065036235
20.29,0.002362426,7.16E-05,-0.056680325
20.3,0.001987719,-0.000542888,0.064673987
20.31,0.001565321,-0.001123953,-0.058336514
20.32,0.001338878,-0.001436296,0.063011509
20.33,0.001344181,-0.001498138,-0.060616292
20.34,0.001435461,-0.001300822,0.061246842
20.35,0.001342593,-0.001036575,-0.062558742
20.36,0.001012472,-0.000725256,0.060119357
20.37,0.000511996,-0.000487822,-0.063584485
20.38,0.000128578,-0.000202567,0.06012152
20.39,6.98E-06,6.46E-05,-0.063337038
20.4,0.000199453,0.000386108,0.061344599
20.41,0.000464269,0.000600733,-0.062011399
20.42,0.000606781,0.000705623,0.063335931
20.43,0.000543041,0.000585893,-0.060245581
20.44,0.000409997,0.000358612,0.065310353
20.45,0.00043281,1.30E-05,-0.0590544
20.46,0.000743926,-0.000288727,0.066085803
20.47,0.001312083,-0.00059641,-0.059526259
20.48,0.001895755,-0.000830412,0.065026858
20.49,0.002255303,-0.001073248,-0.061416329
20.5,0.002329214,-0.001196381,0.063296991
20.51,0.002212159,-0.001216841,-0.063094023
20.52,0.002095361,-0.000958532,0.062479386
20.53,0.002039396,-0.000535144,-0.063518891
20.54,0.001955349,6.82E-05,0.062739192
20.55,0.00163353,0.000602394,-0.063313287
20.56,0.000962631,0.001018126,0.063027685
20.57,3.32E-05,0.001163406,-0.063510433
20.58,-0.000869676,0.001162259,0.062783703
20.59,-0.001408347,0.000992877,-0.063905082
20.6,-0.001516648,0.000820187,0.062952944
20.61,-0.001266031,0.000588305,-0.063134912
20.62,-0.000906639,0.00036634,0.064807785
20.63,-0.000590229,6.69E-05,-0.060656863
20.64,-0.000307022,-0.000225732,0.067634374
20.65,4.95E-05,-0.000551055,-0.058492021
20.66,0.000554305,-0.000798104,0.068483173
20.67,0.001076493,-0.001032921,-0.059664214
20.68,0.001393172,-0.001188917,0.065563086
20.69,0.001315547,-0.001333694,-0.063870025
20.7,0.000900254,-0.0013651,0.061268008
20.71,0.000394661,-0.00125495,-0.067185399
20.72,0.000106934,-0.000897665,0.059813193
20.73,0.000227814,-0.000334886,-0.06655981
20.74,0.00062001,0.000379754,0.062352628
20.75,0.00103792,0.00102654,-0.062882163
20.76,0.001217109,0.001485105,0.066230852
20.77,0.001150319,0.001633781,-0.059728511
20.78,0.000955219,0.00149533,0.067818032
20.79,0.000844477,0.001132775,-0.059920579
20.8,0.000876724,0.000688467,0.066135981
20.81,0.000946299,0.000199134,-0.062220168
20.82,0.000887278,-0.000220383,0.064090877
20.83,0.000625462,-0.000566492,-0.063068211
20.84,0.000291703,-0.000762962,0.06446521
20.85,0.000128641,-0.000832596,-0.061749214
20.86,0.000256176,-0.00076121,0.065695964
20.87,0.00062417,-0.000651801,-0.061275401
20.88,0.000926219,-0.00052025,0.064624802
20.89,0.000918333,-0.000445749,-0.063532004
20.9,0.00040424,-0.000370943,0.061575207
20.91,-0.000359437,-0.000296112,-0.066054215
20.92,-0.001086443,-0.000132184,0.060325627
20.93,-0.001461082,8.35E-05,-0.065006331
20.94,-0.00144613,0.000367901,0.063244845
20.95,-0.00114466,0.000628542,-0.060516365
20.96,-0.000799107,0.000858567,0.067709463
20.97,-0.000478306,0.000958672,-0.057002804
20.98,-0.000121176,0.000942531,0.068878056
20.99,0.000429695,0.000755577,-0.057976878
21,0.001188965,0.000475577,0.065563053
21.01,0.002020613,0.00016457,-0.062190056
21.02,0.002597227,1.38E-06,0.061142993
21.03,0.002776074,1.97E-05,-0.065103708
21.04,0.002481997,0.000261892,0.060013849
21.05,0.001969497,0.000566004,-0.063593453
21.06,0.00144569,0.000825353,0.062913325
21.07,0.001081177,0.000921235,-0.059913325
21.08,0.000785109,0.000929626,0.065241168
21.09,0.000420543,0.000926183,-0.059444156
21.1,-0.000140998,0.001009974,0.062967563
21.11,-0.000847788,0.001143137,-0.062713907
21.12,-0.001545622,0.00124912,0.059541132
21.13,-0.002041242,0.001245589,-0.063979808
21.14,-0.00225545,0.001163595,0.06049516
21.15,-0.002270793,0.001088069,-0.060296764
21.16,-0.002251034,0.001106053,0.064799589
21.17,-0.002279729,0.001142514,-0.055928533
21.18,-0.002367962,0.001062603,0.067134257
21.19,-0.002337574,0.000691165,-0.055404871
21.2,-0.002090513,7.27E-05,0.064912813
21.21,-0.001479069,-0.0006228,-0.059018814
21.22,-0.000651767,-0.001100842,0.059769694
21.23,0.000294193,-0.001165646,-0.063391789
21.24,0.001167614,-0.000851553,0.056576768
21.25,0.001938616,-0.000371433,-0.063274969
21.26,0.002556836,2.03E-05,0.059332919
21.27,0.00307105,0.000229219,-0.057715996
21.28,0.003359394,0.000303816,0.064527017
21.29,0.003349912,0.000419972,-0.053964197
21.3,0.002898659,0.000667091,0.064191055
21.31,0.002046469,0.000998996,-0.057371702
21.32,0.000944886,0.001273932,0.057951452
21.33,-0.000112491,0.001377865,-0.062911595
21.34,-0.00094693,0.001376036,0.053952055
21.35,-0.001406597,0.001425721,-0.062921271
21.36,-0.001606019,0.00163608,0.056747403
21.37,-0.001640601,0.001964134,-0.057100321
21.38,-0.001661426,0.002149254,0.062808266
21.39,-0.001663485,0.001996739,-0.051049635
21.4,-0.001640257,0.001364662,0.066032979
21.41,-0.001511188,0.000516691,-0.050259483
21.42,-0.001305541,-0.000258874,0.062785807
21.43,-0.00103431,-0.000660285,-0.055669088
21.44,-0.000785261,-0.000702,0.055283731
21.45,-0.000525725,-0.000497947,-0.061660594
21.46,-0.000237699,-0.000299968,0.051334632
21.47,0.000198291,-0.000155958,-0.060849519
21.48,0.000745325,-3.38E-06,0.05533539
21.49,0.001341839,0.000298385,-0.053764294
21.5,0.001724104,0.00073623,0.061651649
21.51,0.001770493,0.001196102,-0.048842373
21.52,0.001309767,0.001444151,0.062137017
21.53,0.000581565,0.001485305,-0.051327549
21.54,-0.000203547,0.001402606,0.056238169
21.55,-0.000723746,0.001485148,-0.057453522
21.56,-0.000941456,0.001826769,0.049981376
21.57,-0.000901276,0.002428385,-0.060720471
21.58,-0.000861328,0.002990802,0.04880368
21.59,-0.000893239,0.003288195,-0.057974787
21.6,-0.000942716,0.003207968,0.053324391
21.61,-0.000782515,0.002880313,-0.051102777
21.62,-0.000318428,0.002448023,0.059365581
21.63,0.000347816,0.002060614,-0.04559421
21.64,0.000831578,0.001631655,0.061224214
21.65,0.000894824,0.001105184,-0.046117146
21.66,0.000417909,0.000385718,0.056924765
21.67,-0.000240249,-0.000341479,-0.051345199
21.68,-0.000732322,-0.000918639,0.050494754
21.69,-0.000755119,-0.0010746,-0.05555338
21.7,-0.000537624,-0.000905285,0.047602075
21.71,-0.000422861,-0.000483329,-0.054904804
21.72,-0.000728213,-0.000103561,0.049538003
21.73,-0.001351697,0.00018418,-0.050609967
21.74,-0.001863849,0.000365623,0.053387855
21.75,-0.001820706,0.000613427,-0.046029818
21.76,-0.001050124,0.000939147,0.055996089
21.77,1.62E-05,0.001309439,-0.043917241
21.78,0.000766916,0.001497986,0.055211251
21.79,0.000838889,0.001467145,-0.045730975
21.8,0.0002738,0.00121205,0.050640591
21.81,-0.000432634,0.00101297,-0.050285066
21.82,-0.000879353,0.000997129,0.045039179
21.83,-0.000878582,0.001344139,-0.053646797
21.84,-0.000821836,0.001831483,0.042663265
21.85,-0.00105814,0.002343095,-0.052523478
21.86,-0.001734673,0.002655051,0.045068752
21.87,-0.002485618,0.002840623,-0.047323211
21.88,-0.002716078,0.002892897,0.049955227
21.89,-0.002127257,0.002931723,-0.041536889
21.9,-0.000808029,0.002792822,0.053493196
21.91,0.000609807,0.002406092,-0.038673039
21.92,0.001497702,0.001616548,0.053123573
21.93,0.001577409,0.00058824,-0.040148909
21.94,0.001133784,-0.000493257,0.048562301
21.95,0.000717641,-0.001234742,-0.044867047
21.96,0.00067367,-0.001612102,0.042370275
21.97,0.001019653,-0.001548829,-0.048925496
21.98,0.001286618,-0.001278186,0.039240246
21.99,0.001125102,-0.000822299,-0.048221395
22,0.000362431,-0.000242509,0.041334975
22.01,-0.000584304,0.000564809,-0.043197002
22.02,-0.00124878,0.001502688,0.045610588
22.03,-0.001350597,0.002441139,-0.038374998
22.04,-0.001052692,0.003035034,0.047797698
22.05,-0.000821742,0.003154985,-0.036713485
22.06,-0.001053135,0.002791307,0.04659535
22.07,-0.00182923,0.002227505,-0.038095837
22.08,-0.002702796,0.001690112,0.042917196
22.09,-0.003113881,0.001416847,-0.041034113
22.1,-0.002813565,0.001258923,0.038856312
22.11,-0.00196391,0.001168321,-0.042985164
22.12,-0.00112858,0.000988864,0.037099819
22.13,-0.000715993,0.000907339,-0.041882018
22.14,-0.000903358,0.001037931,0.038105088
22.15,-0.001244686,0.001515598,-0.039153996
22.16,-0.001310276,0.002123691,0.039147567
22.17,-0.000830727,0.00262733,-0.037636485
22.18,-5.67E-05,0.002717575,0.038626754
22.19,0.000548961,0.002415439,-0.037091037
22.2,0.000666818,0.001909231,0.03813858
22.21,0.000343908,0.001557173,-0.035632534
22.22,3.57E-05,0.001364419,0.038908952
22.23,0.000174648,0.001284206,-0.033115351
22.24,0.00084979,0.000937989,0.040195648
22.25,0.001682768,0.000323925,-0.030696569
22.26,0.00205384,-0.000547889,0.040618142
22.27,0.00172046,-0.001221461,-0.030005666
22.28,0.00074375,-0.001498629,0.038492227
22.29,-0.000345804,-0.001238747,-0.032337197
22.3,-0.001160486,-0.000752767,0.033599813
22.31,-0.001540995,-0.000222083,-0.036226554
22.32,-0.001815116,0.000138959,0.028903032
22.33,-0.002304932,0.000517291,-0.03804315
22.34,-0.003087088,0.001018346,0.027711674
22.35,-0.003875363,0.001815617,-0.035753879
22.36,-0.004189089,0.002641072,0.030458179
22.37,-0.00381094,0.003295195,-0.030331516
22.38,-0.002762295,0.003344116,0.034860304
22.39,-0.001535096,0.002969506,-0.025072485
22.4,-0.000533195,0.002284475,0.037174394
22.41,0.000109098,0.001748859,-0.023469167
22.42,0.000536782,0.001421845,0.035185986
22.43,0.001034935,0.001338454,-0.025718436
22.44,0.001679156,0.001163046,0.030618009
22.45,0.002324375,0.00082297,-0.02879641
22.46,0.002639918,0.000309914,0.026746535
22.47,0.00241073,-4.97E-05,-0.030228055
22.48,0.00165723,-0.000110967,0.024954618
22.49,0.000679922,0.000219996,-0.029507449
22.5,-0.000195502,0.000686485,0.025175433
22.51,-0.000811706,0.001128168,-0.02706771
22.52,-0.001201018,0.001336055,0.026422243
22.53,-0.001551374,0.001515017,-0.024603647
22.54,-0.001994215,0.001729689,0.026633372
22.55,-0.00250788,0.002165973,-0.023865467
22.56,-0.002951126,0.002602225,0.025194454
22.57,-0.003131812,0.002907786,-0.02382937
22.58,-0.003044164,0.002869908,0.024304483
22.59,-0.002769584,0.002619877,-0.022386445
22.6,-0.002501,0.002265503,0.024828613
22.61,-0.002345285,0.002057711,-0.020314105
22.62,-0.002300959,0.00191914,0.024885382
22.63,-0.002215564,0.001797251,-0.019426014
22.64,-0.001915677,0.001450524,0.023714218
22.65,-0.001341252,0.000993463,-0.019367872
22.66,-0.000558808,0.000473401,0.022136305
22.67,0.000245866,0.00017287,-0.01947303
22.68,0.000904419,1.82E-05,0.02050557
22.69,0.0012793,1.15E-05,-0.019310478
22.7,0.00142378,-9.87E-05,0.019720321
22.71,0.001385337,-0.000247089,-0.017733219
22.72,0.001224064,-0.000380659,0.020449745
22.73,0.000927559,-0.000241307,-0.015316149
22.74,0.000417945,0.000169281,0.020624359
22.75,-0.000309905,0.000769053,-0.01491638
22.76,-0.001212699,0.001233579,0.017911194
22.77,-0.002112474,0.001517364,-0.017319533
22.78,-0.002813363,0.001592381,0.013506131
22.79,-0.003156505,0.001783793,-0.019661182
22.8,-0.003139824,0.002151773,0.01089643
22.81,-0.002794433,0.002775098,-0.018799017
22.82,-0.002276305,0.003289234,0.012212143
22.83,-0.001663039,0.003504245,-0.014269241
22.84,-0.000979638,0.003252989,0.016186459
22.85,-0.000235252,0.002773789,-0.008638559
22.86,0.000561998,0.002249345,0.019313709
22.87,0.001312692,0.001911285,-0.005633892
22.88,0.001868701,0.001631261,0.018546561
22.89,0.00210246,0.001286546,-0.007012243
22.9,0.001958845,0.000675213,0.013961323
22.91,0.001479129,-3.13E-06,-0.010836671
22.92,0.000829562,-0.000551962,0.008695887
22.93,0.000143589,-0.000547925,-0.013429955
22.94,-0.000458632,-0.000111446,0.00619332
22.95,-0.000951883,0.000639269,-0.012460801
22.96,-0.001333487,0.001234802,0.007298262
22.97,-0.001629074,0.001546543,-0.008660394
22.98,-0.001796821,0.001531028,0.00982464
22.99,-0.001852044,0.001514222,-0.004991057
23,-0.001765734,0.001638823,0.01088424
23.01,-0.001633068,0.001940535,-0.003505163
23.02,-0.001511165,0.002149248,0.009836474
23.03,-0.001497194,0.002105445,-0.003608366
23.04,-0.001577699,0.001732476,0.007765017
23.05,-0.001735879,0.001304628,-0.004370135
23.06,-0.001854325,0.001044437,0.005159913
23.07,-0.001858582,0.001204059,-0.00551439
23.08,-0.001675327,0.001579704,0.002549553
23.09,-0.001330953,0.001988853,-0.006057875
23.1,-0.000867325,0.002126699,0.001162389
23.11,-0.000426856,0.002073978,-0.005074617
23.12,-0.000124364,0.001946087,0.001154939
23.13,-4.62E-05,0.002018371,-0.003150036
23.14,-0.000193894,0.00228932,0.001586693
23.15,-0.000536905,0.002640735,-0.001111258
23.16,-0.000972359,0.002795244,0.002026965
23.17,-0.001476201,0.00266287,0.000867227
23.18,-0.00197037,0.002321717,0.002256553
23.19,-0.002424408,0.00204882,0.002390737
23.2,-0.002709887,0.001958666,0.001855923
23.21,-0.002742504,0.00208198,0.003375556
23.22,-0.002410331,0.002153711,0.001292433
23.23,-0.001820317,0.002043047,0.004642234
23.24,-0.001080108,0.00162506,0.001220703
23.25,-0.000439304,0.001144545,0.006128084
23.26,-1.85E-06,0.000766919,0.000597911
23.27,0.000201805,0.000640842,0.006105266
23.28,0.000296461,0.000640152,-0.002155257
23.29,0.000341393,0.000611601,0.003981589
23.3,0.000404775,0.000408563,-0.006230321
23.31,0.00040658,0.000108672,0.001938513
23.32,0.00035061,-0.000121703,-0.008669701
23.33,0.000211276,-7.56E-05,0.002722853
23.34,0.000110396,0.000224525,-0.007639318
23.35,6.89E-05,0.000652173,0.006845656
23.36,0.000126843,0.000952588,-0.004155921
23.37,0.000135815,0.001074884,0.012005486
23.38,9.68E-06,0.001028946,-0.001414955
23.39,-0.000332367,0.001014048,0.014661694
23.4,-0.000784333,0.00109809,-0.002380593
23.41,-0.001242601,0.001267589,0.013163152
23.42,-0.001560633,0.001349831,-0.006995514
23.43,-0.001744062,0.001210146,0.009426678
23.44,-0.001841743,0.000878147,-0.01201074
23.45,-0.001974639,0.000538445,0.007100182
23.46,-0.002111364,0.000412328,-0.014182384
23.47,-0.00223353,0.000613847,0.00826745
23.48,-0.002187783,0.001082355,-0.012987543
23.49,-0.002011796,0.00160633,0.011967257
23.5,-0.001702025,0.001976617,-0.010697378
23.51,-0.001424503,0.002153102,0.015151992
23.52,-0.001196481,0.002184055,-0.010213247
23.53,-0.001053692,0.002191959,0.015803402
23.54,-0.000879959,0.002212155,-0.012185586
23.55,-0.000675525,0.002203254,0.014737492
23.56,-0.000444408,0.002095292,-0.014859198
23.57,-0.000351694,0.001879736,0.013918737
23.58,-0.000446829,0.001662078,-0.016599408
23.59,-0.000770122,0.001579376,0.014356349
23.6,-0.001148295,0.001745729,-0.016942459
23.61,-0.001461783,0.002093221,0.016167611
23.62,-0.001526132,0.002482318,-0.016143353
23.63,-0.001434074,0.002717269,0.018624625
23.64,-0.001232313,0.002689135,-0.015445852
23.65,-0.001091628,0.002395579,0.020106809
23.66,-0.0009813,0.001958668,-0.016348607
23.67,-0.000897505,0.001492724,0.019800831
23.68,-0.000722517,0.001099284,-0.018682322
23.69,-0.000509604,0.000805887,0.018885933
23.7,-0.00030343,0.00061256,-0.020643367
23.71,-0.00025435,0.000483528,0.019124956
23.72,-0.000337817,0.000416568,-0.020933167
23.73,-0.000499425,0.000365603,0.021170596
23.74,-0.000521902,0.000323448,-0.019601137
23.75,-0.000385719,0.000245857,0.024392343
23.76,-7.33E-05,0.000148448,-0.017794718
23.77,0.000184108,2.66E-05,0.027138409
23.78,0.000296935,-6.24E-05,-0.017446466
23.79,0.00013155,-9.64E-05,0.027502732
23.8,-0.000136337,-1.66E-05,-0.019978834
23.81,-0.000426977,0.000203049,0.025207703
23.82,-0.0005918,0.000608783,-0.02425948
23.83,-0.000710435,0.001155824,0.022554829
23.84,-0.000829868,0.001795068,-0.027338552
23.85,-0.001066692,0.002357608,0.02223331
23.86,-0.001338883,0.002703209,-0.027591616
23.87,-0.001574126,0.002746584,0.024528089
23.88,-0.001600883,0.002525828,-0.026040387
23.89,-0.001476797,0.00212635,0.027589759
23.9,-0.00125561,0.001718993,-0.024621392
23.91,-0.001152186,0.001353931,0.029764873
23.92,-0.001157601,0.001082039,-0.024561399
23.93,-0.001275617,0.000839191,0.030337199
23.94,-0.001294693,0.000653914,-0.026102497
23.95,-0.001177316,0.000500949,0.029595808
23.96,-0.000897802,0.000482743,-0.028371832
23.97,-0.000655293,0.00055853,0.028811353
23.98,-0.000559943,0.000763814,-0.029999638
23.99,-0.000673228,0.000944161,0.029061103
24,-0.000853829,0.001062369,-0.030591851
24.01,-0.000997628,0.001014787,0.030040345
24.02,-0.000976431,0.000888987,-0.030826189
24.03,-0.000894172,0.000711306,0.031077801
24.04,-0.000822885,0.000630634,-0.031071092
24.05,-0.000924597,0.000640424,0.032139779
24.06,-0.001097209,0.000765586,-0.031255069
24.07,-0.001287989,0.000881262,0.033132988
24.08,-0.001324573,0.000997269,-0.031720363
24.09,-0.001270212,0.001044179,0.033656123
24.1,-0.001163309,0.00113524,-0.032612716
24.11,-0.001164686,0.001241046,0.03399297
24.12,-0.001232048,0.001440792,-0.033313775
24.13,-0.001299358,0.001596895,0.034763665
24.14,-0.001176282,0.001704745,-0.03357716
24.15,-0.000854215,0.00161688,0.035721588
24.16,-0.000388236,0.001433183,-0.033938135
24.17,-1.68E-05,0.001129673,0.036357352
24.18,0.000189898,0.000887777,-0.034671366
24.19,0.000154896,0.00068765,0.036648439
24.2,4.32E-05,0.000615959,-0.035685252
24.21,-9.87E-05,0.000547883,0.036692966
24.22,-0.000188263,0.000525309,-0.036792274
24.23,-0.000338823,0.000456341,0.036907487
24.24,-0.000558369,0.000470141,-0.037328705
24.25,-0.000864668,0.000532821,0.037994034
24.26,-0.001098425,0.000761746,-0.03697289
24.27,-0.0011916,0.001038065,0.039577464
24.28,-0.001094636,0.001375821,-0.036737067
24.29,-0.000956568,0.001591718,0.040358005
24.3,-0.000882446,0.001751687,-0.037696246
24.31,-0.001013945,0.001767334,0.039979262
24.32,-0.001241954,0.001794628,-0.039413573
24.33,-0.001492074,0.001782139,0.039357335
24.34,-0.001576822,0.001838456,-0.040842106
24.35,-0.001539017,0.00182764,0.039359351
24.36,-0.00136344,0.001790456,-0.041443861
24.37,-0.001177798,0.001608488,0.040252398
24.38,-0.000933528,0.001410049,-0.041176668
24.39,-0.000622028,0.001173267,0.041829928
24.4,-0.000153862,0.001067567,-0.040534338
24.41,0.000413543,0.00102041,0.04326717
24.42,0.001001028,0.001069112,-0.040525052
24.43,0.001408525,0.001024745,0.043744399
24.44,0.00158947,0.000946893,-0.041465345
24.45,0.001492544,0.000755796,0.043565099
24.46,0.001221498,0.00065314,-0.042596125
24.47,0.000821865,0.000588201,0.043506321
24.48,0.000364867,0.000673858,-0.04352105
24.49,-0.000191342,0.000694369,0.043492481
24.5,-0.000805746,0.000666909,-0.044545955
24.51,-0.001472144,0.000452669,0.043390542
24.52,-0.002050047,0.00024318,-0.045362237
24.53,-0.002447249,5.07E-05,0.043897426
24.54,-0.002585907,4.96E-05,-0.045243994
24.55,-0.002500566,0.000114943,0.04530275
24.56,-0.002254111,0.000267294,-0.044527916
24.57,-0.001986943,0.000325341,0.046801831
24.58,-0.001735112,0.00041947,-0.044172773
24.59,-0.001561135,0.000501639,0.047627668
24.6,-0.00142132,0.000779042,-0.044594768
24.61,-0.001331135,0.00110255,0.047642949
24.62,-0.001235285,0.00151494,-0.045737707
24.63,-0.001154729,0.001780236,0.04705066
24.64,-0.001019949,0.001985757,-0.047233759
24.65,-0.00081788,0.002045534,0.04648874
24.66,-0.000484687,0.002174338,-0.048196457
24.67,-4.13E-05,0.002287494,0.046875286
24.68,0.000487458,0.002446705,-0.047982374
24.69,0.00097147,0.002409937,0.048230303
24.7,0.001318536,0.002194397,-0.0473301
24.71,0.001419341,0.001695585,0.049318978
24.72,0.00122461,0.001115471,-0.047501958
24.73,0.000772637,0.000468825,0.049356969
24.74,0.00015513,-4.63E-05,-0.048434635
24.75,-0.000543367,-0.000563429,0.049133187
24.76,-0.001193445,-0.000978399,-0.049140272
24.77,-0.001738341,-0.001392486,0.049357038
24.78,-0.002108692,-0.001599106,-0.049413744
24.79,-0.002278601,-0.001589666,0.049824106
24.8,-0.002229094,-0.001226052,-0.049545676
24.81,-0.002001812,-0.000696879,0.050402564
24.82,-0.00162223,-3.17E-05,-0.049530113
24.83,-0.001202579,0.000510053,0.051038388
24.84,-0.000787087,0.001001349,-0.049651253
24.85,-0.000439568,0.001370881,0.05126436
24.86,-0.000125403,0.001810377,-0.050280649
24.87,0.000169733,0.002189726,0.05107148
24.88,0.000502914,0.002571114,-0.050987156
24.89,0.000831539,0.002705682,0.051167241
24.9,0.001127448,0.002707866,-0.051155987
24.91,0.001269416,0.002470542,0.051719809
24.92,0.001252522,0.002261868,-0.051156163
24.93,0.001036191,0.002030174,0.052031227
24.94,0.000684826,0.001915562,-0.051614457
24.95,0.000215526,0.001720428,0.051943366
24.96,-0.000335708,0.001499234,-0.052095487
24.97,-0.000961398,0.001125497,0.052214537
24.98,-0.001589037,0.000793735,-0.052007723
24.99,-0.002129716,0.000457148,0.052923085
25,-0.002436854,0.000278329,-0.051780274
25.01,-0.002429569,7.14E-05,0.053472781
25.02,-0.00213525,-0.0001085,-0.051742994
25.03,-0.001663888,-0.000447531,0.053953821
25.04,-0.001176531,-0.000746978,-0.05162823
25.05,-0.000793802,-0.001032335,0.054394262
25.06,-0.000503171,-0.001071217,-0.051847744
25.07,-0.000265729,-0.000995207,0.054168657
25.08,-1.19E-05,-0.000741265,-0.052773209
25.09,0.000228637,-0.000559104,0.053491538
25.1,0.000405934,-0.000383627,-0.053647159
25.11,0.000469222,-0.000328249,0.053226136
25.12,0.000465989,-0.000206489,-0.054034283
25.13,0.000496957,-0.000104983,0.053216446
25.14,0.000661032,0.000100157,-0.054395613
25.15,0.00096099,0.00023921,0.053159119
25.16,0.001265409,0.000425178,-0.054578479
25.17,0.00138494,0.000553189,0.053573273
25.18,0.001229018,0.000817349,-0.054084685
25.19,0.000819538,0.001118968,0.054519835
25.2,0.0002987,0.001558803,-0.053436535
25.21,-0.00020644,0.001904674,0.055127032
25.22,-0.000638454,0.00216008,-0.053477082
25.23,-0.001066992,0.002161534,0.054844685
25.24,-0.001540407,0.002062405,-0.054369735
25.25,-0.002034202,0.001833615,0.053795
25.26,-0.002421779,0.001686238,-0.055830166
25.27,-0.00252452,0.001530103,0.052499786
25.28,-0.00232738,0.001465759,-0.056985751
25.29,-0.0018958,0.001339311,0.052169936
25.3,-0.001429399,0.001277125,-0.056515244
25.31,-0.001069418,0.001177283,0.053722903
25.32,-0.000849286,0.001182476,-0.054353332
25.33,-0.000686627,0.001136032,0.05628855
25.34,-0.000491882,0.001089118,-0.052116986
25.35,-0.000267139,0.000871406,0.057969788
25.36,-9.24E-05,0.000601494,-0.051429623
25.37,-6.65E-05,0.000233172,0.057669159
25.38,-0.000192464,-2.49E-05,-0.052757934
25.39,-0.000374685,-0.000225698,0.055657926
25.4,-0.000473712,-0.000275044,-0.055097642
25.41,-0.000392395,-0.000342719,0.053633239
25.42,-0.00019208,-0.000367399,-0.056368791
25.43,1.34E-05,-0.000475805,0.053363678
25.44,9.46E-05,-0.000511625,-0.055705916
25.45,4.67E-05,-0.000555824,0.054572979
25.46,-7.64E-05,-0.000474225,-0.054363111
25.47,-0.000165001,-0.000428604,0.055646699
25.48,-0.000185245,-0.00035034,-0.053647804
25.49,-0.000176096,-0.000372896,0.055851513
25.5,-0.000209827,-0.000354115,-0.053788439
25.51,-0.000305465,-0.000345439,0.055257632
25.52,-0.000406722,-0.000207396,-0.054545426
25.53,-0.000391209,-5.78E-05,0.054386002
25.54,-0.000214735,0.000148555,-0.055026983
25.55,0.000111034,0.000253175,0.054298072
25.56,0.000452472,0.000359912,-0.054438706
25.57,0.000705429,0.000406398,0.055036633
25.58,0.000775751,0.000558698,-0.05369883
25.59,0.000734344,0.000710192,0.055094355
25.6,0.000638218,0.00091394,-0.054113547
25.61,0.000563572,0.000974767,0.05402216
25.62,0.000483803,0.000940426,-0.055064641
25.63,0.000342237,0.000708507,0.053185587
25.64,8.60E-05,0.000460455,-0.055159698
25.65,-0.000254585,0.000178494,0.05339853
25.66,-0.000575292,5.95E-06,-0.054297726
25.67,-0.00073718,-0.000157096,0.054260555
25.68,-0.000707027,-0.000247849,-0.053044994
25.69,-0.000541214,-0.000377,0.055230778
25.7,-0.000408385,-0.000419413,-0.052089908
25.71,-0.000400487,-0.000427219,0.055262131
25.72,-0.000562789,-0.000264709,-0.052722795
25.73,-0.00075335,-5.17E-05,0.053288576
25.74,-0.000869979,0.000247842,-0.055060033
25.75,-0.000835267,0.000483834,0.050592618
25.76,-0.000751864,0.000733982,-0.056746816
25.77,-0.000730629,0.000946418,0.049789967
25.78,-0.000837589,0.001247601,-0.055833072
25.79,-0.000975602,0.001550928,0.051407155
25.8,-0.000985736,0.001857996,-0.053161923
25.81,-0.000738132,0.001985855,0.053885514
25.82,-0.000283831,0.001909815,-0.050512647
25.83,0.000186542,0.001580343,0.055542825
25.84,0.000413891,0.001125061,-0.049363427
25.85,0.00036954,0.000585546,0.055105887
25.86,0.000127836,0.000109891,-0.050489939
25.87,-5.79E-05,-0.000329966,0.05267202
25.88,-9.22E-05,-0.00064104,-0.052777529
25.89,4.19E-05,-0.000832178,0.050267878
25.9,0.000132376,-0.000809215,-0.053867658
25.91,6.42E-05,-0.000607224,0.049718109
25.92,-0.000173245,-0.000221899,-0.052984869
25.93,-0.000399013,0.000174189,0.050656355
25.94,-0.000446855,0.000517057,-0.05138918
25.95,-0.00026753,0.000686239,0.051497808
25.96,-7.28E-06,0.000724377,-0.050482933
25.97,0.000141483,0.000635428,0.051320931
25.98,1.68E-05,0.000521452,-0.050519196
25.99,-0.000291666,0.000346512,0.050506438
26,-0.000633216,0.000177197,-0.050714019
26.01,-0.000773611,-2.52E-05,0.04998237
26.02,-0.000739119,-0.000160628,-0.050303646
26.03,-0.000592638,-0.000228644,0.05006692
26.04,-0.000547448,-0.000165673,-0.049455446
26.05,-0.000642716,-5.79E-05,0.050278264
26.06,-0.000852247,7.53E-05,-0.048736932
26.07,-0.000987446,0.000135179,0.050167961
26.08,-0.000932511,0.000153566,-0.048418408
26.09,-0.00066998,0.000122613,0.049580403
26.1,-0.000329041,0.000115048,-0.048555033
26.11,-2.46E-05,8.04E-05,0.048624732
26.12,0.000135531,2.76E-05,-0.048795396
26.13,0.000207176,-0.000128311,0.047903398
26.14,0.000258033,-0.000326974,-0.048492729
26.15,0.00041743,-0.000556307,0.047746184
26.16,0.000642763,-0.000703088,-0.0478395
26.17,0.000901192,-0.000761521,0.047553096
26.18,0.001035543,-0.000698933,-0.047447961
26.19,0.001044632,-0.000596554,0.047154398
26.2,0.000896096,-0.00045733,-0.046879577
26.21,0.000745,-0.000326474,0.047284523
26.22,0.000629982,-0.000156172,-0.045742693
26.23,0.000600736,4.48E-05,0.047540586
26.24,0.000541726,0.000299806,-0.045153643
26.25,0.000376436,0.000548689,0.046622352
26.26,3.03E-05,0.000771435,-0.045878055
26.27,-0.000414708,0.000905395,0.044799151
26.28,-0.000843784,0.000986144,-0.046747975
26.29,-0.001067823,0.001024612,0.04351995
26.3,-0.001052322,0.001079363,-0.046609409
26.31,-0.000809901,0.001135901,0.043349889
26.32,-0.000480479,0.001165856,-0.04538475
26.33,-0.000131463,0.001098133,0.044183348
26.34,0.000157485,0.000893633,-0.043309092
26.35,0.00046169,0.000558807,0.045453986
26.36,0.00076192,0.000160186,-0.041502071
26.37,0.001077599,-0.000243159,0.045466326
26.38,0.001285666,-0.000612132,-0.041735353
26.39,0.00132429,-0.000961938,0.043217117
26.4,0.001155101,-0.001315523,-0.043690136
26.41,0.000894184,-0.001674565,0.040391136
26.42,0.000637224,-0.001977219,-0.044911423
26.43,0.000516712,-0.002154396,0.039149088
26.44,0.00048715,-0.002120171,-0.044271391
26.45,0.000482229,-0.001905596,0.039475928
26.46,0.000331251,-0.001555299,-0.042631688
26.47,4.77E-05,-0.001163946,0.04024168
26.48,-0.000365762,-0.000790148,-0.040911868
26.49,-0.000744693,-0.000442736,0.040781896
26.5,-0.00106523,-0.000111471,-0.039669913
26.51,-0.00125025,0.000215029,0.040540835
26.52,-0.001402004,0.000498138,-0.039388556
26.53,-0.001485122,0.000692753,0.039421171
26.54,-0.001511613,0.000751525,-0.039575158
26.55,-0.00136416,0.000709703,0.038380483
26.56,-0.001023013,0.000622057,-0.039154156
26.57,-0.000500991,0.000588079,0.038141964
26.58,4.14E-05,0.000639203,-0.038108035
26.59,0.00050441,0.000751327,0.038083646
26.6,0.000751752,0.000827507,-0.03730108
26.61,0.000836879,0.00080639,0.037515378
26.62,0.000786557,0.000661343,-0.037002925
26.63,0.000702887,0.000454107,0.036541844
26.64,0.000544241,0.000243787,-0.036998184
26.65,0.00030918,0.000100206,0.03529226
26.66,-9.34E-05,-1.86E-05,-0.037223914
26.67,-0.000591461,-0.000127544,0.033964842
26.68,-0.001152072,-0.000292252,-0.03712256
26.69,-0.001616997,-0.000465131,0.033451196
26.7,-0.001949991,-0.000629682,-0.035796224
26.71,-0.002114518,-0.000717377,0.034242304
26.72,-0.00220366,-0.000767328,-0.033504321
26.73,-0.002215429,-0.000801618,0.035333718
26.74,-0.002208453,-0.000907715,-0.03159058
26.75,-0.002063927,-0.00106655,0.035464488
26.76,-0.00178551,-0.001252943,-0.03093665
26.77,-0.00126784,-0.001338269,0.034303486
26.78,-0.00061598,-0.001305391,-0.031405358
26.79,0.000135848,-0.001119915,0.032312303
26.8,0.00082433,-0.00089309,-0.032257999
26.81,0.001451661,-0.000662624,0.030403725
26.82,0.001953737,-0.000522477,-0.032548629
26.83,0.002435826,-0.000399869,0.029366673
26.84,0.002858081,-0.000296917,-0.031909892
26.85,0.003224345,-0.000129318,0.029060504
26.86,0.003395272,4.48E-05,-0.030858258
26.87,0.003301518,0.000235359,0.028805298
26.88,0.002921068,0.000360503,-0.029969744
26.89,0.002370675,0.000464889,0.028333484
26.9,0.001761568,0.000527351,-0.029177611
26.91,0.001244359,0.00062775,0.027939095
26.92,0.000775409,0.000710717,-0.028137746
26.93,0.00033321,0.000799798,0.027817599
26.94,-0.000220594,0.000780651,-0.02696309
26.95,-0.000817871,0.000697918,0.027514498
26.96,-0.001430256,0.000499499,-0.026337151
26.97,-0.001886894,0.000297409,0.026333796
26.98,-0.002191894,7.68E-05,-0.026668999
26.99,-0.002305833,-7.99E-05,0.024390575
27,-0.002369122,-0.000257957,-0.027318278
27.01,-0.002365392,-0.000433064,0.022668836
27.02,-0.002324132,-0.000683125,-0.027268706
27.03,-0.002119717,-0.0009223,0.021890685
27.04,-0.001740103,-0.001154282,-0.026170593
27.05,-0.001162993,-0.001268272,0.022141812
27.06,-0.000513417,-0.001296975,-0.024114187
27.07,0.000134205,-0.001215675,0.023159582
27.08,0.000642334,-0.001127696,-0.021703717
27.09,0.001046741,-0.000998347,0.023899754
27.1,0.001328684,-0.000900427,-0.020201709
27.11,0.001585333,-0.000756586,0.023271858
27.12,0.001797332,-0.000646076,-0.0201254
27.13,0.002000717,-0.000533912,0.021521261
27.14,0.002109466,-0.000527089,-0.02073295
27.15,0.002125612,-0.000570739,0.019432505
27.16,0.001972812,-0.000705726,-0.021456844
27.17,0.001717474,-0.000801173,0.017395293
27.18,0.00133259,-0.000871353,-0.021769988
27.19,0.000920419,-0.000839254,0.016288003
27.2,0.000451646,-0.000806326,-0.02064378
27.21,-1.44E-05,-0.000751923,0.016833647
27.22,-0.000518513,-0.000780265,-0.018162923
27.23,-0.000974006,-0.000803135,0.017967968
27.24,-0.001369116,-0.000853803,-0.015971386
27.25,-0.001552588,-0.000803127,0.018085303
27.26,-0.001555534,-0.000725178,-0.015126828
27.27,-0.001339504,-0.000557812,0.016945796
27.28,-0.00105023,-0.000418147,-0.015251017
27.29,-0.000741062,-0.000244053,0.015123113
27.3,-0.000531565,-0.000103791,-0.015782742
27.31,-0.000366161,0.00010422,0.013169214
27.32,-0.000255519,0.000308801,-0.016030262
27.33,-0.000112869,0.000552764,0.0119947
27.34,2.22E-05,0.000693961,-0.015101636
27.35,0.000175762,0.000744021,0.012089377
27.36,0.000296703,0.000611599,-0.013206225
27.37,0.00045238,0.00038101,0.012509864
27.38,0.000632328,4.09E-05,-0.011623809
27.39,0.000893703,-0.000294812,0.012251528
27.4,0.001145777,-0.000703953,-0.010733201
27.41,0.001356655,-0.001125596,0.011513653
27.42,0.001402095,-0.0016617,-0.010122689
27.43,0.001329483,-0.002185752,0.01049692
27.44,0.001128656,-0.002685225,-0.009935984
27.45,0.000924676,-0.002976622,0.008941936
27.46,0.000724416,-0.003077216,-0.010137992
27.47,0.000582535,-0.002921665,0.007423521
27.48,0.000451168,-0.002683448,-0.009769182
27.49,0.000381646,-0.002358941,0.006889381
27.5,0.000356775,-0.00207816,-0.008307587
