time,node_0_accel_x,node_0_accel_y,node_0_accel_z,node_11_accel_x,node_11_accel_y,node_11_accel_z,node_14_accel_x,node_14_accel_y,node_14_accel_z,node_17_accel_x,node_17_accel_y,node_17_accel_z,node_18_accel_x,node_18_accel_y,node_18_accel_z
0,0,0,0,0,0,0,0,0,0,0,0,0,0,0,0
0.005,0.0044758001112,-0.00483000012,0.00115276002864,-3.9898894067333e-05,4.3056360504398e-05,4.3778478173613e-06,0.00046111603974279,-0.00049760723713251,0.00037194585513239,-6.4984894762124e-05,7.0127584275669e-05,8.1630104010979e-05,-1.1344443082128e-05,1.2242204764886e-05,2.9061270510423e-05
0.01,0.0044436001104,-0.0054096001344,0.0012719000316,-0.00016512774934726,0.00018367188669041,5.7217958523319e-05,0.0025479560810418,-0.0028128856720641,0.0013071282988619,-0.00025028969237498,0.00027901658324586,0.00059992158024949,-6.9019988054093e-05,7.6039090040008e-05,0.00028630031285416
0.015,0.0043792001088,-0.0063112001568,0.00145866003624,-0.00042612456172293,0.00049120791927104,0.00033040226520628,0.0055611645546705,-0.0064514910319638,0.0017725181220994,-0.00020247136236457,0.0002670129905415,0.0018004355071647,-0.00020522876669053,0.00023341660032346,0.0012157202215696
0.02,0.0043148001072,-0.0074704001856,0.0017227000428,-0.0008718410277533,0.0010464098117391,0.0011015356030324,0.0062322115243899,-0.0081722886045084,0.0018298782983857,0.00090300843663745,-0.00087405700805983,0.0028422073652694,-0.00039075246097251,0.00046804341362006,0.0028674256963483
0.025,0.0042182001048,-0.00885500022,0.00201250005,-0.0014756065047471,0.0018643967124114,0.0023316379644367,0.0045618469467519,-0.0078555233659521,0.0024201903465217,0.0035993058034885,-0.0038722855189729,0.0027200178837748,-0.0004820275579317,0.00064158615940688,0.0040006860402909
0.03,0.0042182001048,-0.0101752002528,0.0023667000588,-0.0020724358389122,0.0028158653428977,0.0032969815111151,0.0037402082603249,-0.0085745176393367,0.0025265384001796,0.0071989746920844,-0.0082982113125369,0.0022401626364536,-0.00020838276561696,0.00046020982960224,0.0031971281465849
0.035,0.0041538001032,-0.0115598002872,0.00269192006688,-0.0021972062481062,0.0034287368694918,0.0034106953580644,0.0037197070324649,-0.010084713505702,0.002248723792503,0.0097707590478641,-0.012399792554202,0.00228657756528,0.00073028065416879,-0.00045093581016157,0.001350312439736
0.04,0.0042182001048,-0.0126224003136,0.00305578007592,-0.0012076887326727,0.0029600004732935,0.0033519856970846,0.0040931030523572,-0.011818247902743,0.0026975776673481,0.0097322376493688,-0.014556989811247,0.0022635784809193,0.0024534483752812,-0.0023462610727179,0.00091021356120645
0.045,0.0041860001039999,-0.0135562003368,0.0033166000824,0.0012948648956402,0.00078751531643138,0.0039511569299932,0.006143078204886,-0.01512719426095,0.0032960738566962,0.0078964895337288,-0.015344349918047,0.002605932066837,0.0047784358446748,-0.0052213576490402,0.0024527840178748
0.05,0.004347000108,-0.0139426003464,0.0036064000896,0.0048281957933294,-0.0029143727792156,0.0044922090226644,0.0077070858416966,-0.017858776377548,0.0036052811917399,0.0067324745319675,-0.016935259290327,0.0038550977699255,0.0073468672404142,-0.0089031796435633,0.0043875995431838
0.055,0.0043470001080001,-0.0142968003552,0.0037674000936001,0.0079525235565463,-0.0069787091415506,0.0042081702427186,0.0064536691233351,-0.017495919287108,0.0039160494234783,0.0070006934437723,-0.019813614400503,0.0046458060030884,0.009844081538148,-0.013226599594777,0.0053413380949896
0.06,0.0045080001119999,-0.01449000036,0.0040572001008,0.0093537385192791,-0.010200052283017,0.0038424572347728,0.0043668936343797,-0.015971799854213,0.0044967221901758,0.0070299619162267,-0.02201999649491,0.0046564574507026,0.012066378510307,-0.018060955517533,0.0050730882597968
0.065,0.0045402001128,-0.0149086003704,0.0043148001072,0.0090794713907299,-0.012527650993355,0.003831837449773,0.0032493780930351,-0.015227070747857,0.0045674739496727,0.0057764033555708,-0.02222324491666,0.004566544197094,0.013828922911295,-0.023184562159368,0.0042602688960207
0.07,0.0047656001184,-0.015134000376,0.0047012001168,0.0084800996470326,-0.015061418902133,0.0037981857885574,0.0029870665887041,-0.015213012225062,0.0042668500750345,0.0041235599950941,-0.021112019907853,0.0042761058971697,0.014898180743491,-0.028196574430896,0.0038633892362952
0.075,0.00483000012,-0.0155848003872,0.0050876001264,0.0085047012556597,-0.018426516669384,0.0040535372204194,0.0038962691613405,-0.016201193042603,0.0047214819876738,0.00280671540248,-0.019401386492967,0.0041994035673423,0.01504863728971,-0.032573645202892,0.004113212572407
0.08,0.0050554001256001,-0.015778000392,0.0055706001384001,0.0087110657654974,-0.021820256656618,0.0046708099311445,0.0052472944636997,-0.017443998838886,0.0053134758755817,0.0015746792631162,-0.017027203966622,0.0047333951121871,0.014147213711573,-0.0357821148413,0.0046580462712232
0.085,0.0051842001288001,-0.016196600402399,0.0060858001512001,0.0083394373692521,-0.024131384285866,0.0051223868984157,0.0052819855985606,-0.017161333044849,0.0059023432181474,0.00076097333880151,-0.014662275823017,0.0058593475692429,0.012177154084654,-0.037357347046189,0.0054921738097989
0.09,0.0055384001375996,-0.0163254004056,0.0067620001680001,0.0076788227949483,-0.025404033036758,0.0057336313504703,0.0045673477687181,-0.015881571299701,0.0068282461569957,0.0014783269743037,-0.013744593357077,0.0071488073322551,0.0092722639939583,-0.037007859788578,0.0068775842891709
0.095,0.0057638001432,-0.0166152004128,0.0074060001840001,0.0075308106820417,-0.026405663122735,0.0068111641709651,0.0042893139752045,-0.014881426922471,0.0077390442965027,0.0036372065670943,-0.014365096013547,0.0078450653797257,0.0057761542967711,-0.034737981917615,0.008385835696472
0.1,0.0062468001551998,-0.016583000412001,0.0082110002040001,0.0078364313341134,-0.027268550216299,0.008015751724784,0.0043669979102905,-0.014262978947876,0.0083398318292577,0.0054526799722007,-0.014833730936848,0.0084696380689777,0.0021786018760121,-0.030827472331096,0.0090698663250024
0.105,0.0066332001647997,-0.0166796004144,0.0089838002231999,0.0080834020949661,-0.027795703416398,0.009199957588607,0.0055918150659494,-0.014913176633093,0.0087905467315677,0.0058374966915375,-0.014189141531548,0.0090498571802263,-0.0010767955127525,-0.025663788418941,0.0089254832943418
0.11,0.0073416001823999,-0.016357600406401,0.0098854002455998,0.0084110483553565,-0.028415068454405,0.010098427884598,0.0078519094075363,-0.016658151884183,0.0096986534561002,0.005937739134633,-0.013692827893319,0.0092183382558773,-0.0036938500192131,-0.019652951822377,0.00886960892872
0.115,0.0080178001992002,-0.016132200400801,0.0106904002656,0.009258505545495,-0.029718548582987,0.010833214170998,0.0091900029254099,-0.017358326333419,0.010577459065828,0.0071441523577868,-0.014718691612529,0.010087604460049,-0.0054510758759224,-0.0132885574409,0.0095605081140165
0.12,0.0091126002264008,-0.015456000383999,0.0114954002856,0.010237677927941,-0.031345808397405,0.011881029276051,0.0094534777593318,-0.016680694035104,0.011286647584916,0.0089560369474238,-0.016615841622468,0.01142289789748,-0.0061278851529587,-0.0071982094638648,0.011113606452601
0.125,0.0102396002544,-0.0147798003672,0.0121716003024,0.010497793735313,-0.032427639080621,0.012806964081724,0.009879307406258,-0.015757078303805,0.012345462329684,0.010184170757291,-0.017982388410791,0.012473446633587,-0.0055539707936945,-0.002044723881474,0.012929772622453
0.13,0.011817400293601,-0.013652800339199,0.0127512003168,0.0098549282132907,-0.032725568281201,0.01338392900034,0.010623130766059,-0.014668576757736,0.013167425748586,0.010841316149773,-0.018537132075344,0.013489571835705,-0.0037002087547447,0.0016281054127518,0.014040829767203
0.135,0.013524000335999,-0.012525800311201,0.013041000324,0.0086015128416299,-0.032360493960877,0.013946159667189,0.011927183875644,-0.013596001728,0.013475492365713,0.011471841197476,-0.018421744604932,0.013956512640273,-0.00069688074179182,0.00348622398147,0.014200089863043
0.14,0.015778000392001,-0.0109158002712,0.0131376003264,0.0069099808107691,-0.031198635070325,0.014286852280113,0.014406566924204,-0.013102377875863,0.01342214930502,0.011991779695627,-0.017177715331919,0.013831588008718,0.0032085013009124,0.0034368195543306,0.013863065063356
0.145,0.018193000452,-0.0094024002336002,0.0128478003192,0.0050874482899144,-0.029229325283606,0.014403206925216,0.017214246481252,-0.01221525969952,0.013122984548694,0.012412289138022,-0.014644083431782,0.013284602188791,0.0076875868379281,0.0016484962055859,0.013371840745348
0.15,0.021155400525601,-0.0074060001840006,0.012139400301601,0.0039018022804217,-0.026994416213424,0.014384308829788,0.019459132977037,-0.0099000703789814,0.012419666085762,0.013593045892351,-0.011672080090835,0.01238221753415,0.01237883308322,-0.0014722325627368,0.012648736426684
0.155,0.0242788006032,-0.0056350001399981,0.0108192002688,0.0038177079984168,-0.024811136023439,0.013901897616042,0.021828101986865,-0.0068660597999249,0.011118280710078,0.016277493741673,-0.0089983303998569,0.011584705254262,0.016985916537069,-0.0053852116252541,0.011607478429272
0.16,0.0278852006928,-0.0035420000880011,0.0089516002223996,0.0044842039882724,-0.022244285329426,0.012771691078865,0.024731457494429,-0.0036878419099148,0.0095750361796314,0.020071365559976,-0.0062190576479255,0.01016336903613,0.021354538750716,-0.009517337439754,0.01034502452363
0.165,0.031523800783201,-0.0018354000456027,0.0062790001559997,0.0054582385821741,-0.018878882497601,0.010848870355093,0.028330227224734,-0.00077053106831892,0.0072445357997637,0.024119267292027,-0.0026044539731263,0.0078569457360725,0.025444920644488,-0.013273863287475,0.008539198194552
0.17,0.03542000088,-4.8944001213691e-05,0.0029076600722401,0.0068323907503218,-0.014937371538864,0.0081747844106102,0.033053364151905,0.0011276361921056,0.0037881606537735,0.028376837658424,0.0015871893857587,0.0048866286435478,0.029267241584942,-0.016033359397875,0.0055816117109845
0.175,0.039284000976001,0.0011237800279174,-0.0014554400361607,0.0089849121082777,-0.01091698387928,0.0046353129097404,0.038180626719188,0.002428875679671,-0.000482707836147,0.033494390318601,0.0053087255598966,0.00047418864570718,0.032883135122591,-0.017228614763944,0.001230055821198
0.18,0.043148001071999,0.0020704600514434,-0.0068264001696004,0.01204699783492,-0.0069818679702968,-0.00022091818681487,0.042836467960661,0.0037827878109596,-0.0058138804086966,0.03965622902831,0.0079322553770276,-0.0050861934385971,0.036445925663995,-0.016473740678104,-0.0044623966732156
0.185,0.046368001152,0.0020318200504799,-0.013556200336801,0.015925638284718,-0.0030006153143483,-0.0062582985671577,0.047114841558605,0.004779531393644,-0.012393028367635,0.046298638693371,0.0095255261474913,-0.011458812540184,0.040197793743542,-0.013642404061853,-0.011174082562619
0.19,0.049588001232001,0.0014264600354414,-0.02173500054,0.020457183427509,0.0012824745552991,-0.013464386178197,0.050892262915251,0.0050305273568921,-0.020417450489763,0.052825790013941,0.010181415429118,-0.019181994500482,0.044410772816107,-0.0088771637978254,-0.018622113628677
0.195,0.051520001280001,-0.00038640000959722,-0.031652600786401,0.025539445339774,0.0061142152923563,-0.022160438630268,0.053908246204514,0.0043118475946519,-0.029913390832789,0.058850072615523,0.0098583302315287,-0.028358772204532,0.049309988446883,-0.0025596433495966,-0.027246004278238
0.2,0.052486001303998,-0.0026500600658366,-0.042826001064,0.031241594293287,0.011544317475223,-0.032370879706764,0.056472319642247,0.0019493360177453,-0.041128233612834,0.063898146509973,0.008659765616496,-0.039432501068025,0.055011154533015,0.0047369035762934,-0.037951975513861
0.205,0.052486001303997,-0.0056028001391972,-0.054740001360002,0.037697012630075,0.017416444817306,-0.044534765113965,0.058178324469133,-0.0019830164840081,-0.053801254066865,0.067509813068603,0.0065941914839042,-0.052481556534156,0.061476370301072,0.012302015139313,-0.051208836338921
0.21,0.050876001264001,-0.0079856001983996,-0.066010001639999,0.045014623109136,0.023416662106886,-0.058853018050608,0.057914799510882,-0.0060903243218989,-0.066509807403869,0.069497629244815,0.0032691413086617,-0.066601562610575,0.0684865828813,0.019335050003267,-0.066334339460409
0.215,0.047334001176004,-0.0095956002383983,-0.07567000188,0.053246691270812,0.029095982290535,-0.074720826119964,0.055617326613361,-0.0094472663003945,-0.07792694774128,0.069785046050797,-0.0017054249943523,-0.080125206540492,0.075646743962868,0.024972809907886,-0.081320322774697
0.22,0.042504001055998,-0.008919400221604,-0.082432002048,0.062455493689931,0.033746719844575,-0.091106066203313,0.051272199230371,-0.011558136944841,-0.086424573617928,0.068096713232408,-0.0081058817467853,-0.090309300898014,0.082417708984227,0.028321453699277,-0.093237766330904
0.225,0.034454000856003,-0.0056672001407965,-0.087584002176,0.072517214214609,0.036529599188452,-0.10581418513735,0.044449205111974,-0.011432260507255,-0.091085127315891,0.063951386028217,-0.014975831930195,-0.095311645548285,0.08813922248019,0.028544189314175,-0.099192277479849
0.23,0.023667000588005,0.0012590200312794,-0.091448002271999,0.082924114598287,0.036708034983482,-0.11622771302728,0.03531414724805,-0.0085099905600642,-0.093062993973456,0.05697882040228,-0.020921432271209,-0.095374693543186,0.092047234765581,0.025014093847419,-0.098181864002911
0.235,0.0078246001944033,0.010658200264805,-0.095312002368001,0.092908345683662,0.033753124585426,-0.12065897056892,0.023005323678546,-0.0024646405559233,-0.094231210327545,0.047163341355751,-0.02443645363831,-0.092979440037022,0.093322964924693,0.017487535746085,-0.092780671028395
0.24,-0.013620600338403,0.021992600546396,-0.10143000252,0.10174192710786,0.027413060519898,-0.11872718668317,0.0056291422825884,0.0069863424407511,-0.096997004286742,0.034603138581761,-0.02400692597045,-0.092694090584044,0.091175200688306,0.0062616683549971,-0.088794721175929
0.245,-0.042182001048001,0.033166000824006,-0.112056002784,0.10903616794595,0.017814003135567,-0.11235402139994,-0.01806896402155,0.018983102194372,-0.10490229089496,0.018993307376882,-0.018131167555809,-0.098304298039855,0.084923260248843,-0.0077019595064327,-0.092450094318473
0.25,-0.077602001928,0.043470001079998,-0.12719000316,0.11468545604877,0.0057808293119435,-0.10547813889763,-0.04921432508934,0.031888696789575,-0.12010618317846,-0.00072055874003138,-0.0056705315177887,-0.11225203235949,0.074022319451981,-0.022712207016554,-0.10688845159539
0.255,-0.11914000296,0.052808001312,-0.145222003608,0.11866181380717,-0.0069957015322587,-0.10268554442727,-0.088292082124267,0.044486067682234,-0.14101519245783,-0.026480838043451,0.01343250428494,-0.13564142922863,0.058012332995184,-0.036402496169901,-0.13144304606864
0.26,-0.163576004064,0.062790001559995,-0.161966004024,0.12070798903165,-0.018052774525734,-0.10900552991987,-0.13373568778216,0.056517364628788,-0.16363369737138,-0.060825856808212,0.037535833543537,-0.16453835493729,0.036336334901958,-0.04594861999248,-0.16295513805741
0.265,-0.20769000516,0.073738001832005,-0.174846004344,0.12001701393366,-0.024665829976492,-0.12861916261857,-0.18250311163697,0.06904770401306,-0.18275453241472,-0.10601778435914,0.063459694516153,-0.19054837084657,0.00812173301038,-0.048495131293802,-0.19482937482336
0.27,-0.246974006136,0.086618002151997,-0.184506004584,0.11488453349535,-0.024649129196515,-0.16093511292651,-0.23118144076689,0.083931588708202,-0.19419002610343,-0.16299899917724,0.087742677585487,-0.2057941231433,-0.027987832306981,-0.041707870720129,-0.21633481918423
0.275,-0.282394007016,0.099176002464005,-0.196742004888,0.10247144215157,-0.017190280783222,-0.19877773786134,-0.27631976325747,0.10140403444581,-0.19982859951746,-0.23048338982804,0.10831746422034,-0.20723470178954,-0.07382539435189,-0.024265756393767,-0.21830256100166
0.28,-0.314916007824,0.11076800275199,-0.217028005392,0.079057846436593,-0.0034353755680731,-0.23288519348398,-0.31648134433806,0.11886428931351,-0.20818548566715,-0.30420610041393,0.12525630426468,-0.20202292170836,-0.13139366718309,0.0038912804672241,-0.20339270486636
0.285,-0.34776000864,0.11914000296,-0.245686006104,0.040772025090051,0.013892255310879,-0.25813232433013,-0.35429468202146,0.13270263537995,-0.22788187293377,-0.37716654878661,0.13998776974931,-0.20726888236174,-0.20223593411134,0.041624069759304,-0.19159996907627
0.29,-0.37996000944,0.123648003072,-0.274344006816,-0.015171028831142,0.031805798485721,-0.27647466358896,-0.39313359041382,0.14018903151764,-0.25988916736384,-0.44176941281024,0.15364195944823,-0.23791005918525,-0.28665875751581,0.086888912913882,-0.21121950427172
0.295,-0.41538001032,0.123648003072,-0.292698007272,-0.089077256883767,0.048674202413845,-0.2955886126937,-0.43341374855155,0.14068586593485,-0.29527289653065,-0.4929016398216,0.1655980853817,-0.29155053679971,-0.38294058696732,0.13699466247167,-0.27485206238717
0.3,-0.44436001104001,0.120428002992,-0.295596007344,-0.17783288554073,0.065002378077845,-0.32095307087443,-0.47284195636594,0.13606639011083,-0.31944616992244,-0.53020029279903,0.17350713159054,-0.34376878768052,-0.48719688682784,0.18881147998478,-0.35809891524252
0.305,-0.4669000116,0.116886002904,-0.281428006992,-0.27506253826985,0.082801859835228,-0.34702178265524,-0.50554503795409,0.12946219147936,-0.31879871311835,-0.55726004307149,0.17466403064149,-0.36178259478157,-0.59373208086953,0.23877209300761,-0.4062951702413
0.31,-0.48944001216,0.115598002872,-0.24311000604001,-0.37301724210081,0.10409760336871,-0.35900753658569,-0.52453842669709,0.12387717554803,-0.28373488244781,-0.57817035861728,0.16780199904624,-0.32634337390805,-0.69595051700995,0.28290841640842,-0.37354319931447
0.315,-0.51198001272,0.12010600298401,-0.16937200420799,-0.46549120473538,0.12931019713326,-0.34351952491843,-0.53209075591223,0.1215233967752,-0.20702222194716,-0.59368548138401,0.15382539683701,-0.23913341907145,-0.78722636243327,0.31704147102834,-0.26074560065567
0.32,-0.54418001352,0.14007000348,-0.048300001200004,-0.55019281200692,0.15657782918177,-0.29457532215943,-0.54096773193225,0.12474695805869,-0.084550408306227,-0.60094658655434,0.1353305287858,-0.11102325687202,-0.86142991709055,0.33717255213824,-0.10939368958639
0.325,-0.59892001488,0.179676004464,0.12461400309601,-0.62834437884129,0.18208750234757,-0.20628090244016,-0.56352795343662,0.13908345249537,0.084911372903495,-0.59715344184223,0.11594621191901,0.053220791723157,-0.91306107728427,0.33997911151486,0.047821410944061
0.33,-0.67298001672,0.23667000588,0.32844000815999,-0.70183963819329,0.20129823770219,-0.060754333036039,-0.61048905871676,0.17286711541268,0.29612579564193,-0.58470856657923,0.10065206966675,0.25826969092615,-0.93733682701058,0.32336444937969,0.22478272467727
0.335,-0.75992001888,0.301392007488,0.51198001272001,-0.76982237147233,0.21021091959446,0.16722888480456,-0.68758460015111,0.22896031294729,0.51919835217354,-0.57507880420911,0.097050316014362,0.50244150291835,-0.93083088843974,0.28711340387511,0.46002324120145
0.34,-0.84364002096,0.36386000904,0.61502001528,-0.8278017731543,0.20649371871181,0.48458373614705,-0.78141346969172,0.29906666098349,0.6935004214857,-0.58741748189184,0.11596572846455,0.74742283010711,-0.89308129635104,0.23374149868498,0.74949405640682
0.345,-0.91126002263999,0.40894001016,0.60536001503998,-0.87045362246073,0.19067194497859,0.85507062293943,-0.86837542737724,0.36863609219685,0.75360156429,-0.64037741353085,0.1690912536703,0.90136072750511,-0.82842128326737,0.16937751653566,0.9965225581264
0.35,-0.94024002336,0.44436001104,0.49588001232001,-0.8968921785134,0.16735638000513,1.1920181123181,-0.93331966429035,0.42402706990455,0.66450500559248,-0.74235818000743,0.26224503876955,0.85834929683858,-0.74744816555728,0.10437487748397,1.0373296106977
0.355,-0.91770002279997,0.47012001168,0.31040800771197,-0.9154583669194,0.14620186230249,1.3754632813639,-0.96429310870857,0.4613522397543,0.43543071903248,-0.88576502478877,0.38721114879531,0.58143422260705,-0.66690187957365,0.052772976490075,0.75253317456813
0.36,-0.83398002072003,0.49266001224,0.092736002304004,-0.94405827571617,0.14119286641155,1.3015313663874,-0.94928660470722,0.49260018171886,0.11571693117918,-1.0461070749215,0.52081694839802,0.14480578292086,-0.60744538140315,0.030050049574346,0.19199731312536
0.365,-0.69552001728,0.50232001247999,-0.126546003144,-1.0050681505666,0.16729490197774,0.94020886890573,-0.88403864232987,0.53111451143538,-0.20941644150764,-1.1869981440645,0.63614877727863,-0.30471347482502,-0.58948984699118,0.04957749094375,-0.41463152252744
0.37,-0.52164001295997,0.483000012,-0.33166000824,-1.1159312724929,0.2343294856063,0.34742531888163,-0.76886866977204,0.57044484437956,-0.46086330312917,-1.2696232231182,0.7175852764892,-0.62380241670628,-0.62802949180098,0.11923817209014,-0.80653512214037
0.375,-0.34776000864,0.43470001079998,-0.51842001288,-1.279925280887,0.3406611859653,-0.37374072615227,-0.60876402987014,0.58420065964875,-0.61806205997748,-1.2594200075834,0.76540415724641,-0.74531051374526,-0.72766714024311,0.23971137465679,-0.87620138597691
0.38,-0.19126800475195,0.3703000092,-0.66010001639999,-1.4808218775801,0.47186776293638,-1.1067261173325,-0.4244582334851,0.54589467047969,-0.69793412367537,-1.1293363237887,0.78528038848116,-0.7194176742755,-0.87885319215141,0.40470606806051,-0.72744497490272
0.385,-0.066976001664038,0.30332400753601,-0.74060001840003,-1.683731628566,0.6072707640461,-1.7285107702311,-0.24315203146177,0.4547141926396,-0.72332731676406,-0.86833252038717,0.7725981084207,-0.66983858541974,-1.0563053072171,0.60197266622998,-0.57618253841055
0.39,0.022314600554395,0.244076006064,-0.74704001855997,-1.8420808606096,0.73045186888494,-2.1246712505522,-0.077320791819917,0.34119027004685,-0.72435589936538,-0.4942329899766,0.70806369959665,-0.67817358108335,-1.220610130305,0.81368962026351,-0.58234807500532
0.395,0.080500001999973,0.19803000492001,-0.71806001784,-1.9077557238264,0.83440804472919,-2.2161434980572,0.071417839559319,0.24220838428772,-0.72238972128468,-0.056741167545474,0.57275725350708,-0.73026972581916,-1.3237493320612,1.0161127152941,-0.73088001053869
0.4,0.11881800295203,0.17420200432798,-0.70196001743998,-1.8420698249378,0.9165052542703,-1.9718761908313,0.20395561350526,0.17676898933223,-0.72292493447002,0.37697422053506,0.37138292969193,-0.76946282071675,-1.3181369560273,1.1800282006182,-0.86245607931667
0.405,0.14264600354404,0.17645600438399,-0.74382001848,-1.6264181374125,0.96877337882227,-1.4264451204605,0.32413052247017,0.14226449731289,-0.73734588622388,0.74499929976339,0.14070248272246,-0.76245705673159,-1.1669306013711,1.2739372501726,-0.84372909872118
0.41,0.15391600382408,0.20447000508,-0.83076002064001,-1.2717518868674,0.97441835058002,-0.71218315183357,0.42419157096868,0.12372493444663,-0.78671211103582,1.0060517239098,-0.067736947115536,-0.74016668328893,-0.85255346977388,1.2702126678887,-0.71337663950406
0.415,0.15649200388808,0.23924600594403,-0.89516002223999,-0.82051615334556,0.91646526256179,-0.042080855091353,0.48009784313406,0.11008988565241,-0.86212417206806,1.1406945260373,-0.21453368190642,-0.7791227349298,-0.38144246745052,1.1520364452828,-0.65232825115996
0.42,0.16422000407989,0.25792200640799,-0.86940002159999,-0.33515692333973,0.79262836086287,0.38078132562365,0.47649504405069,0.10325380708642,-0.90653712000986,1.1455617181248,-0.28304145453201,-0.89843021469849,0.2153043154549,0.91826863520635,-0.79762272537057
0.425,0.19191200476802,0.24633000612,-0.73738001832,0.12219001313329,0.623295621288,0.45485347662029,0.42431470598545,0.10684194941781,-0.8628310644587,1.0295172178218,-0.27060503050613,-0.9953483928989,0.88481383251653,0.58498881997964,-1.063671447415
0.43,0.24794000615996,0.20221600502397,-0.53130001320001,0.50614145402695,0.44435761008649,0.21954321827176,0.3554625233094,0.11414436099279,-0.70146266616867,0.81167050983962,-0.18149210114837,-0.91382630702494,1.5581566100663,0.18410145817918,-1.1570385357166
0.435,0.32200000800007,0.13169800327202,-0.29334200728798,0.79297122881241,0.29141884778379,-0.16979361779847,0.3072951165905,0.11400557587827,-0.41910812586126,0.52242665703977,-0.032999293056355,-0.5820328732115,2.1580525458792,-0.24024775485379,-0.82373285047396
0.44,0.39928000992001,0.044114001095988,-0.040572001008015,0.97896988470646,0.18930437074572,-0.53317943989337,0.29851620090494,0.09797581252129,-0.058138253833731,0.20972447184661,0.13966824151761,-0.080027338217985,2.6085593528664,-0.63754643259348,-0.11693231341573
0.445,0.46690001159989,-0.066332001647982,0.24053400597603,1.0773121782989,0.15119027210986,-0.75097464767969,0.31534283582281,0.060467900783011,0.31306317391937,-0.058384492376098,0.29186084172162,0.42623101830901,2.846256714049,-0.95861687324828,0.60989561627458
0.45,0.52808001312003,-0.19706400489603,0.56350001399998,1.1147752950826,0.1774858230524,-0.76102242357115,0.3337216827888,-0.0026603383721031,0.65123519683394,-0.21236547023305,0.3840725348566,0.79468481865917,2.8317504664067,-1.1637534948072,1.0139288916731
0.455,0.5860400145599,-0.32039000795998,0.91448002272001,1.1272614995446,0.24925481690743,-0.50859931558533,0.35068769332016,-0.097138080375785,0.95149185717385,-0.21534247432285,0.38928476223064,1.0007285641834,2.5585225806587,-1.2294556969316,1.0629115940768
0.46,0.63756001584004,-0.39606000983996,1.2236000303999,1.155492641699,0.32620991060405,0.056308600837351,0.38743246609474,-0.21755940290913,1.2146449082863,-0.080829569764142,0.29192173636424,1.1539218367717,2.055612178421,-1.1527343063549,1.0279180981099
0.465,0.67298001671987,-0.40250000999997,1.40392003488,1.2388236547783,0.36001315441897,0.91267666356736,0.46926198105232,-0.33015854737547,1.4170805311312,0.14550786778893,0.087797125801474,1.3627737600428,1.3828666130297,-0.95267212129565,1.2001403381903
0.47,0.67942001687995,-0.35098000872001,1.4007000348,1.4031853906856,0.31470827624227,1.9124368520388,0.5965134593888,-0.39349349598285,1.5152690298083,0.4202785585323,-0.20857301711642,1.5977707449345,0.6211464000508,-0.66879696444128,1.5991611226924
0.475,0.65044001616009,-0.26275200652792,1.22682003048,1.6459319256978,0.1760615805807,2.8082373729523,0.72964989230098,-0.39518113071299,1.4512992702628,0.71689090490502,-0.55334598231051,1.696902388159,-0.13867571187806,-0.35562066324864,1.9279565411945
0.48,0.59892001487994,-0.16583000412011,0.92092002287991,1.9292744578365,-0.054751206865394,3.3312340086705,0.81295402846208,-0.35524535116461,1.1786999292426,1.0107040139879,-0.87115362116934,1.4822575156416,-0.80595495956558,-0.073065529098453,1.8150686019983
0.485,0.53130001320006,-0.072450001799986,0.50876001263996,2.1935435172425,-0.36970241063769,3.2791145019598,0.81670184496037,-0.3054509971315,0.69837839793055,1.259597339723,-1.0742273053711,0.90965651360772,-1.3002999613744,0.1262287384008,1.1297959309036
0.49,0.47012001167996,0.012429200308777,0.053130001319944,2.3833897539285,-0.75035462385157,2.5955395537864,0.7549141762575,-0.26641181439018,0.078986815962007,1.4050738659479,-1.1019447802158,0.10762045036262,-1.5620575586556,0.20923139401556,0.095508994271188
0.495,0.42504001055992,0.08468600210405,-0.35742000887997,2.4669261552551,-1.1538751343457,1.3762659500952,0.66802155425731,-0.22532719843784,-0.52549704545845,1.3944565058691,-0.95239131256286,-0.69645904910083,-1.562356432002,0.16995498858349,-0.88488921521472
0.5,0.39928000991997,0.15134000376,-0.64722001608003,2.4352968250339,-1.5067516119106,-0.19132557509032,0.59229561829774,-0.14239073530417,-0.94163146170123,1.2082826583873,-0.67279459271636,-1.2565877413587,-1.3096261113455,0.02903151956582,-1.499615154311
0.505,0.40572001008002,0.21992600546413,-0.77602001927999,2.2907555758684,-1.7236325779183,-1.8604212541541,0.53433805009436,0.0079971607797986,-1.0794831567752,0.87655741452382,-0.31904636974639,-1.4079033550075,-0.84951247719214,-0.17309813918434,-1.638377072524
0.51,0.44114001096005,0.29688400737593,-0.75670001879994,2.0404303764274,-1.7480212200383,-3.3055955610821,0.474547834245,0.21457050184589,-0.9503087511476,0.47179107525014,0.070668950042343,-1.1544689446863,-0.25702370523884,-0.38527289570637,-1.3349976899755
0.515,0.49588001232,0.38318000952006,-0.6118000152,1.6991809330329,-1.5846986160542,-4.1523088988624,0.40194441795698,0.43937485068315,-0.64679430796234,0.080195618553709,0.46949991435361,-0.66784602224342,0.37733927457504,-0.55385775809271,-0.72557712995774
0.52,0.55384001376001,0.46368001151999,-0.34132000847996,1.2950082361584,-1.2949917476765,-4.1365617684071,0.32905239520523,0.63607791059435,-0.28290048890171,-0.22925694673352,0.84738404796369,-0.17619675830302,0.96351451717068,-0.62975200787616,-0.061189913122555
0.525,0.58926001464017,0.5248600130401,0.058926001464023,0.86902408596544,-0.95919874566364,-3.2497803041913,0.2782786019991,0.77356814530314,0.091706560128627,-0.41657182996487,1.1700727120777,0.18785869885223,1.4257715982265,-0.57487264584957,0.38074479545016
0.53,0.60214001495989,0.56994001415998,0.56994001416005,0.46866225927044,-0.64054221983582,-1.6910640699978,0.2694420493139,0.84760928431038,0.5020929571752,-0.46238194446421,1.4048539943953,0.45955671320934,1.7124093691492,-0.36800108244506,0.52326405468924
0.535,0.59570001480008,0.5957000148001,1.12056002784,0.13670797485969,-0.37419561074606,0.26705563831536,0.30606400091075,0.87170596528008,0.98728473925571,-0.35886332793576,1.523155475131,0.804309264962,1.8012220766702,-0.0092074894925698,0.6192982790718
0.54,0.59248001472007,0.59570001479995,1.56814003896,-0.099522859608182,-0.17163715855443,2.3429589829416,0.3759149483372,0.86216146309965,1.5137035657486,-0.11530636190195,1.5070773702395,1.3567394661595,1.7010180817824,0.47797234147152,1.0564558307274
0.545,0.58282001448,0.56028001392,1.7549000436,-0.23366261927818,-0.022453910271502,4.2436923117519,0.46860103541752,0.81945045916906,1.9372842173001,0.23124492417865,1.3635198412179,2.0324316979316,1.4487508453422,1.0476907072963,1.9393667321584
0.55,0.56350001399998,0.49266001223991,1.6035600398399,-0.28116463331351,0.10465352368212,5.6355503364502,0.57477910918525,0.7248554298058,2.0541077288544,0.62104767542826,1.128866026826,2.5063570578386,1.1020941356981,1.6372079986761,2.8430757714149
0.555,0.51520001280012,0.39284000976011,1.1881800295199,-0.27624428958897,0.24958414409204,6.1605080227707,0.6727467791213,0.56640369461686,1.7278485483482,0.99204224513243,0.85066047061805,2.3788816907637,0.72877100383056,2.175983929055,3.0385195341213
0.56,0.44436001104,0.25921000643991,0.68264001695999,-0.26441602305495,0.44223940727893,5.555352940567,0.7327270670162,0.3571052632793,1.0154477695369,1.2946424964896,0.56201270987276,1.4807475545555,0.39513274947881,2.5959259231407,2.0615154254887
0.565,0.35420000880018,0.10304000256004,0.24826200616799,-0.28819894827626,0.69412068881689,3.8070421934488,0.73138852115967,0.1232096079232,0.15798513857324,1.4899718597694,0.27417971505152,0.10643504057677,0.15610274616211,2.839855317053,0.17626158537716
0.57,0.265006006584,-0.054096001344014,-0.075348001872056,-0.36849097078137,1.003839210723,1.2344243563111,0.65983708443014,-0.10561582081114,-0.5425397203343,1.5427867707583,-0.010189415773242,-1.1103188914449,0.047175515550042,2.8668621653658,-1.6666209114757
0.575,0.18579400461602,-0.1890140046961,-0.34454000856003,-0.49313474111579,1.3626544469914,-1.5728389504215,0.53194788962044,-0.29684862358616,-0.88737196411861,1.4252694234647,-0.2819982970086,-1.6008806007913,0.078566692387138,2.6553159624991,-2.4338122084461
0.58,0.11914000296007,-0.28529200708795,-0.62790001560007,-0.62370043435032,1.7486906908943,-3.9606079422898,0.37939126453833,-0.43098309004745,-0.89437434507034,1.1331276418508,-0.52438735791085,-1.2656228344318,0.23249004318486,2.2047492112543,-1.7783775535407
0.585,0.066976001664021,-0.34776000864001,-0.92414002295996,-0.72048847554949,2.1161288923289,-5.4510937876127,0.22376153059417,-0.51055891851626,-0.76584619573857,0.69866218112223,-0.7212440404517,-0.56150686805468,0.46520512913726,1.5366990549703,-0.36379862113697
0.59,0.042504001056078,-0.3864000096001,-1.1914000296,-0.76600906411393,2.3946625101538,-5.8587564599461,0.069106466363833,-0.54725676780127,-0.75243723282328,0.18643060022425,-0.86029884337412,-0.15571226234852,0.71449331629275,0.69390840039103,0.59026662208298
0.595,0.053130001320085,-0.4057200100799,-1.37494003416,-0.76774926057358,2.5085702989139,-5.253848324217,-0.07648048083428,-0.5559584416016,-0.99155610791484,-0.32529262963336,-0.92946243806921,-0.45509271563471,0.91130250307455,-0.26227336889901,0.24297562961332
0.6,0.099176002464046,-0.39284000975999,-1.45866003624,-0.74104656827368,2.4071101641867,-3.8653971008534,-0.19081151737067,-0.54739498399671,-1.4163189247947,-0.7637619487561,-0.92182788834105,-1.3345899568173,0.99288938250004,-1.25619103396,-1.2179062900394
0.605,0.16776200416797,-0.36386000903993,-1.47154003656,-0.69215382166435,2.0876538310141,-2.0051370040595,-0.24649483205275,-0.51434341244865,-1.8079549258608,-1.0732734319542,-0.84933278588337,-2.2378397803017,0.91457246094929,-2.2041535871898,-2.7592736982821
0.61,0.22990800571195,-0.34454000856009,-1.4168000352,-0.61826249167917,1.5989894627928,-0.061127588038628,-0.22548826087243,-0.4484029674991,-1.9372528259272,-1.216637405771,-0.74143393819099,-2.5883077398535,0.65817100357383,-3.022750747206,-3.3308974812611
0.615,0.26243000652006,-0.35742000888004,-1.2429200308799,-0.51923434068443,1.0256945516274,1.5200984947923,-0.13697620205112,-0.37097866432811,-1.6779750779503,-1.1704259667013,-0.62241645770619,-2.1615022099118,0.23654595666209,-3.6379866048309,-2.6206419563923
0.62,0.25663400637591,-0.42504001056003,-0.8919400221599,-0.4054736143553,0.46133104935095,2.3737811288361,-0.021360842874825,-0.32601670641386,-1.0576483098762,-0.92702488811551,-0.49628486330078,-1.1760250484737,-0.30581369086469,-3.9928279456701,-1.1511873366133
0.625,0.20350400505606,-0.55706001384002,-0.37352000927999,-0.29164934830086,-0.020898237850064,2.3775072695708,0.078516924653953,-0.35401570007877,-0.25969297210823,-0.51049821961291,-0.36259396549623,-0.073197913663775,-0.89666958772264,-4.0516408569501,0.25220340701018
0.63,0.097888002431933,-0.76314001895998,0.24150000600006,-0.18321584324168,-0.38449733030086,1.7047556497327,0.14160269764987,-0.4825407412308,0.48544184812447,0.0096491877143703,-0.24542949311567,0.78926577140964,-1.445311781298,-3.8027044279908,1.0890582004634
0.635,-0.061180001520028,-1.0110800251201,0.81144002016006,-0.068660172110596,-0.6236637282167,0.75184992593058,0.15880290761146,-0.71021602745567,1.0391806084561,0.52862920769151,-0.19852497323479,1.2715504217985,-1.8572533746616,-3.261112215265,1.3889846901903
0.64,-0.26822600666407,-1.2236000304,1.2236000304,0.075134659139117,-0.74783520306091,-0.057097853921511,0.12292809533481,-0.990654340577,1.3647274338182,0.93860468568961,-0.27898149395398,1.4550122051719,-2.0519534047947,-2.4722222863425,1.4485743921422
0.645,-0.50232001248002,-1.32986003304,1.49408003712,0.26703317730734,-0.78038022004304,-0.45945094784207,0.024417391257904,-1.2451386336836,1.5143707097575,1.1586809928959,-0.51890870348037,1.5185276518816,-1.9791357016988,-1.5131446624977,1.4924570785534
0.65,-0.71162001768004,-1.2976600322401,1.70982004248,0.50661710101283,-0.77283540980028,-0.38761500251472,-0.1496833236401,-1.3924062147984,1.6319141941038,1.1432647760654,-0.91432968059216,1.5798128289099,-1.6298370546145,-0.48945524404742,1.5749550138881
0.655,-0.8468600210399,-1.1624200288801,1.9416600482401,0.76910711217155,-0.80943271162761,0.11597955272596,-0.38800034614157,-1.392747915369,1.8346695256191,0.87497285590868,-1.4154734244358,1.7187611724005,-1.040788893489,0.47441436013572,1.6889433800599
0.66,-0.88872002208001,-0.97244002415988,2.18638005432,1.0121265199766,-0.98739301083634,0.96987880872411,-0.63521290857535,-1.2799070649739,2.1165469217003,0.36450247193165,-1.9121804541245,2.0052889072628,-0.29223507461351,1.2516160512538,1.8944531220536
0.665,-0.84364002095989,-0.75348001871995,2.36348005872,1.1849607528942,-1.383360043089,2.066311514562,-0.82851825161027,-1.1294230883803,2.4022543019826,-0.33506703637537,-2.2505377315352,2.4042610879777,0.50093036036595,1.7350161170196,2.289562029201
0.67,-0.75026001864011,-0.48944001216008,2.39246005944,1.2349208780204,-2.0227489271341,3.2540933857404,-0.94242900640282,-0.98387755691413,2.5849742030112,-1.117085608115,-2.3037885955525,2.756213957494,1.2050884204806,1.8600669076993,2.8143564830711
0.675,-0.64078001591998,-0.17194800427207,2.2701000564,1.1160703773787,-2.8565914646862,4.2894371790495,-0.99125094498941,-0.80528018833533,2.5520866789635,-1.833157085856,-2.0461340101784,2.8605997594822,1.690049797293,1.6198431204564,3.1528889436955
0.68,-0.55706001384,0.19191200476813,2.0672400513599,0.80692037040883,-3.7516932208551,4.8536952178995,-1.0117212797081,-0.50150411251125,2.286147259353,-2.3319612772587,-1.5501561560407,2.5844225898465,1.8543611636842,1.0655634228693,2.946435470288
0.685,-0.52164001295999,0.56672001408013,1.86116004624,0.33147041489991,-4.5143782381457,4.7254933398549,-1.0351986075577,-0.011544082048252,1.8981505259504,-2.5126342582655,-0.90566037879641,1.9822641521472,1.6471842485174,0.29423038315127,2.1456517082577
0.69,-0.53130001320003,0.88872002208006,1.64864004096,-0.23427822501485,-4.9582058272658,3.90828491731,-1.0541069712148,0.61908514239114,1.5181361375963,-2.3617299324616,-0.1482221123928,1.3255479702369,1.0801940942839,-0.5679562475391,1.1423308716146
0.695,-0.54740001359997,1.0915800271199,1.3717200340799,-0.77989327651543,-4.9849939894911,2.6010430425605,-1.0241688890315,1.236815284845,1.1987553855313,-1.9471760635088,0.72907887195158,0.91684912965457,0.22558588735223,-1.3791529878346,0.51634209117793
0.7,-0.54418001352004,1.1495400285599,0.98532002447993,-1.1977393817766,-4.6163498239756,1.1131361300565,-0.89763272564107,1.6630951395707,0.93073295905664,-1.3773737723243,1.7038277351601,0.82031833079068,-0.79844817636844,-1.9929036886073,0.55727992932417
0.705,-0.52808001312,1.0948000271999,0.53774001336,-1.4216614291849,-3.9469760793769,-0.27696930697886,-0.66162286237554,1.808364173222,0.65949464275035,-0.75858433519635,2.669849139402,0.81501644320376,-1.8492448085239,-2.27258892158,0.96128492080855
0.71,-0.49266001223999,0.95956002383984,0.1023960025439,-1.4486860388296,-3.0658317059912,-1.4251962198571,-0.36900193299924,1.7286051139131,0.30954631894679,-0.1714819894837,3.4451834692246,0.60729616742665,-2.7819867840875,-2.1131005149865,1.0534646192124
0.715,-0.4701200116799,0.76958001911995,-0.28625800711201,-1.3340812787618,-2.0206638384089,-2.2586579511036,-0.11442013419268,1.5581718866226,-0.14349022825277,0.33301200436356,3.8348253684168,0.068277789924326,-3.4688131059039,-1.466598212307,0.40798551425018
0.72,-0.47978001192005,0.5441800135199,-0.64078001592003,-1.165238208655,-0.84843692084229,-2.6888380311529,0.028419798041196,1.3762031867528,-0.65628041266268,0.72231700797552,3.7170287113605,-0.68150367715053,-3.8131598229746,-0.36344432825952,-0.74141312377695
0.725,-0.52486001304001,0.27949600694397,-0.97244002416003,-1.0301137498519,0.37689437005433,-2.639043555283,0.030253151751626,1.1504787159781,-1.1398895146224,0.96028965959578,3.1093089990402,-1.3712768437595,-3.7597045094376,1.081748755178,-1.7349223125263
0.73,-0.60858001512004,-0.0052486001305265,-1.2719000316001,-0.98935149399551,1.5324359485371,-2.1527240584647,-0.094226835916579,0.78783462655131,-1.4978080304909,0.99603349510193,2.1616096669602,-1.7746438131301,-3.3014131052124,2.6845855244069,-2.1032755093309
0.735,-0.70518001751993,-0.28336000703989,-1.48764003696,-1.0584699258387,2.4812598586954,-1.465184895667,-0.28917475510934,0.22813233527488,-1.6712977564469,0.78769461418493,1.0629924495703,-1.8458707441392,-2.4837705836208,4.2221851847683,-1.9205257858035
0.74,-0.77280001919998,-0.53774001336017,-1.50696003744,-1.2066262373207,3.1290227003101,-0.88595212779579,-0.49906144683896,-0.46932381450927,-1.6375045707199,0.34446469381592,-0.063402850481862,-1.6946098448633,-1.4033667068637,5.4692346004036,-1.592426760118
0.745,-0.77602001927996,-0.76314001896006,-1.23648003072,-1.3791675268959,3.4690302114128,-0.57690673432307,-0.69530275765226,-1.1356008749386,-1.3804201296761,-0.26272846840776,-1.173156364099,-1.4423919398895,-0.19773571027529,6.2272147437068,-1.3904463638476
0.75,-0.70196001743995,-0.94346002344012,-0.70840001759992,-1.531898137213,3.5863729630114,-0.49387310783446,-0.8497310547298,-1.6151244107212,-0.89496624739149,-0.9310802947346,-2.2198491971683,-1.0815301926939,0.97310774179255,6.3445735953992,-1.2195228915678
0.755,-0.5570600138398,-1.05938002632,-0.093058002311953,-1.6486762091479,3.6094542169748,-0.48216822376505,-0.93243385395348,-1.8592585600364,-0.24583973599363,-1.5532923763138,-3.0923877208613,-0.48794458416516,1.9500981051109,5.7325889749891,-0.76864425252832
0.76,-0.38640000960008,-1.1109000276001,0.39284000976002,-1.731151772222,3.6366733641925,-0.3520717902,-0.92987162210175,-1.9132275306157,0.42059867567876,-2.0226506558372,-3.6448755721435,0.35632256134982,2.5986146972598,4.381428950887,0.14887655184862
0.765,-0.24311000603991,-1.11412002768,0.56028001391997,-1.7783573772219,3.6891619840415,0.036065646273062,-0.84269720134123,-1.8612265036783,0.90079110923524,-2.2405252225555,-3.7775148088464,1.193903065729,2.8294565662155,2.37220877193,1.3181844543258
0.77,-0.18869200468816,-1.08514002696,0.36386000903995,-1.7805901854007,3.7192341680751,0.64681227709026,-0.70052339754064,-1.762667093951,0.95898284682963,-2.1422991330835,-3.4877471488207,1.5895121473988,2.6146613253038,-0.12293592755788,2.1210098371847
0.775,-0.2611420064879,-1.04328002592,-0.075670001880046,-1.7226525080694,3.6536690068901,1.2472836215097,-0.56791824581248,-1.6071604272001,0.48737647178694,-1.7235992850444,-2.8655147074173,1.1840179358626,1.9944035835456,-2.857221056613,1.8933796559965
0.78,-0.43148001072006,-0.99820002480013,-0.52808001312002,-1.5844864559526,3.431740120525,1.5338141891951,-0.50074385474762,-1.3548137409121,-0.34229307097716,-1.0500128445465,-2.0550316237453,-0.016651803256653,1.0723656224323,-5.5402239922134,0.44111198863623
0.785,-0.63434001576005,-0.96600002399999,-0.74704001855998,-1.3434471409245,3.024341043023,1.283114836316,-0.50416232086556,-1.0153731092173,-1.1366251537361,-0.25289093420621,-1.2085557889172,-1.4913297323953,-0.0013126240912067,-7.8765444872151,-1.6613283872946
0.79,-0.79212001967992,-0.96278002392012,-0.58604001455993,-0.9881428665423,2.4411964390041,0.46224864193775,-0.52908721741557,-0.6649109470015,-1.4511778644321,0.48698193188157,-0.44652771650843,-2.4073956814528,-1.0573649704962,-9.6042322026654,-3.2500615848139
0.795,-0.85974002135984,-0.96922002407983,0.0030332400754918,-0.53702296050876,1.7263115718031,-0.69079472842901,-0.50351678304352,-0.40831439773726,-0.9799565933165,0.98447142275951,0.15841454471644,-2.0962669761724,-1.9398649268506,-10.526152261459,-3.2106474296579
0.8,-0.81144002015998,-0.9466800235201,0.94990002360012,-0.044708734154689,0.93315775685753,-1.704881835578,-0.3920818392956,-0.31523539760474,0.29532284183693,1.1237388175128,0.55959646762704,-0.45346364991436,-2.5362706224282,-10.531166065127,-1.214345783176
0.805,-0.65366001623991,-0.87906002183988,2.0672400513601,0.40404075759479,0.095848096782652,-2.0806278953504,-0.23019095523371,-0.35723853217169,2.0452318470713,0.9120333402609,0.70314570541609,2.0040289472912,-2.7954742595063,-9.6061538178148,2.0008490949644
0.81,-0.43148001071999,-0.77924001936004,3.1491600782401,0.71110314562839,-0.77395953746186,-1.482632277606,-0.089320961544437,-0.43674443119543,3.7258831751667,0.46273891520412,0.53837814539745,4.3930963305845,-2.7287408830254,-7.8400810664854,5.0704857378667
0.815,-0.20092800499187,-0.66010001640005,3.9606000984,0.79416255455501,-1.6603743337289,0.18969647992837,-0.027082768473314,-0.4879841760124,4.8619778753359,-0.076708035488736,0.078148579541074,5.8803041187119,-2.395840492911,-5.4181414345596,6.8192531183698
0.82,-0.028497000707899,-0.55706001383991,4.2182001047999,0.62568380654215,-2.5188386656894,2.757774661617,-0.06407491785498,-0.514841093621,5.1534940634283,-0.58646825344706,-0.55746118587364,6.0771675592334,-1.884425736986,-2.6016469234847,6.8332932062696
0.825,0.045724001136057,-0.48622001208003,3.8962000967999,0.25967550619776,-3.2843526913568,5.7250421659038,-0.17269194626346,-0.56332135705684,4.5288635515993,-0.98754796632661,-1.1756521485279,5.1268344057177,-1.2902754085355,0.30745404904556,5.4776706494174
0.83,0.013524000336064,-0.43148001072001,3.0718800763199,-0.17815189268386,-3.9032436573087,8.3265700663591,-0.30135191146041,-0.68086108474367,3.2750542610487,-1.2287866952827,-1.6058684278119,3.4654786406567,-0.70125206666927,3.0106481843467,3.4813177230285
0.835,-0.10207400253594,-0.3735200092799,2.1091000524,-0.53423494385373,-4.3552358895319,9.7181499990805,-0.41979865560082,-0.84251519914727,1.8699102789619,-1.2858886235597,-1.7746794229297,1.6270714529084,-0.18603295344809,5.2521327214325,1.4716735876489
0.84,-0.253414006296,-0.31910200792806,1.2976600322399,-0.68110104093723,-4.6461975405026,9.2664804843598,-0.51904230750645,-0.93017560611172,0.74072960359224,-1.1720937720949,-1.7000876743134,0.17069709045139,0.21263363387051,6.8450116095898,-0.15177029178542
0.845,-0.38318000951989,-0.29559600734404,0.71806001783998,-0.55334240370717,-4.7894473886744,6.8417310807023,-0.58669904620126,-0.847933010448,0.14005111032636,-0.93517735974141,-1.4302667637359,-0.51525543636753,0.47863117426408,7.6830782036882,-1.0463543690482
0.85,-0.44436001104,-0.3284400081601,0.23570400585589,-0.16016457582106,-4.8010846508004,2.9800120635497,-0.60035134774748,-0.62104978014425,-0.024140943282042,-0.63840080645505,-0.99763461438901,-0.41473134231291,0.61801195393165,7.7431663942619,-0.94180386436542
0.855,-0.40572001007999,-0.4282600106401,-0.31137400773616,0.41551015978586,-4.7056684505557,-1.3037805271065,-0.53034696465544,-0.36471496730199,-0.09285543832889,-0.3447512730715,-0.42006917944839,0.078430077869519,0.65133297945602,7.0821094459025,-0.014755841992388
0.86,-0.29398600730415,-0.56672001407993,-0.95634002376008,1.0294977747503,-4.5296047471622,-5.0293988112144,-0.35852210317172,-0.20552876524575,-0.4057090753603,-0.10416102932655,0.26515483968625,0.27144547408459,0.60528537901082,5.8285483545949,0.86984388207956
0.865,-0.13685000340024,-0.69230001719984,-1.5681400389602,1.5094824401258,-4.2813980181206,-7.6206413236904,-0.11203631527911,-0.19822009105424,-1.084933106285,0.067288701565082,0.95793595298281,-0.37539480160785,0.50613317667278,4.1664356779771,0.59005101279274
0.87,0.070518001752406,-0.74382001848015,-1.99318004952,1.7097978796893,-3.945762144378,-8.8675022100354,0.14219172307854,-0.26996173506336,-1.9494216076258,0.19787443399412,1.4838195347959,-1.770305642315,0.37701149774078,2.3076417133616,-1.2557189099557
0.875,0.34776000863964,-0.68586001703995,-2.1316400529599,1.558835895255,-3.5031747523772,-8.7171818882481,0.36361171206968,-0.28373663630193,-2.6638226282139,0.33312229081508,1.6589175291221,-3.2375160953298,0.23899815839048,0.45650212285892,-3.7344544637754
0.88,0.70840001760048,-0.51842001288011,-1.98352004928,1.0756243456474,-2.9578508777284,-7.1815519868799,0.58217075536199,-0.1666893146111,-2.8590770989061,0.49023971353054,1.4030290803938,-3.9147500172912,0.11310547069401,-1.2234893052434,-5.1461166565292
0.885,1.13988002832,-0.27434400681598,-1.6325400405599,0.35791184040148,-2.352411516976,-4.4759746831162,0.86634786873527,0.038558931149885,-2.3755372584316,0.64902129824512,0.80077788789042,-3.3096603024596,0.019628656138411,-2.6282009503709,-4.3927537037127
0.89,1.5842400393605,0.013717200340746,-1.21394003016,-0.44321296383502,-1.760140923679,-1.1689000704827,1.2634911319852,0.21442623062399,-1.4117363858526,0.7982669572725,0.051984166005647,-1.672531876015,-0.025042468455044,-3.7107172319281,-1.878658186662
0.895,1.9770800491197,0.28561400709605,-0.85330002119994,-1.1588113557586,-1.2529898417585,1.9834570777804,1.7477568101091,0.2607308825735,-0.38918689230875,0.98603792425957,-0.63989293400065,0.17360778209937,-0.0094414787195349,-4.4642978940827,0.85128727499613
0.9,2.2636600562402,0.47656001183996,-0.67942001688003,-1.6453990910792,-0.85667391200077,4.3378442376658,2.2086137237164,0.17949249513094,0.20802762958758,1.3054454865115,-1.147950945027,1.2572537545327,0.077887622868841,-4.902506403149,2.2876898231129
0.905,2.3989000595997,0.54096001343997,-0.82432002048011,-1.8133180963654,-0.5267921046101,5.501964271371,2.5212928531486,0.053147087065418,0.065908178104557,1.8168711407929,-1.4293458073157,1.0274896181983,0.25646761101736,-5.0453898257159,1.8502576435661
0.91,2.3699200588803,0.46368001151996,-1.3491800335201,-1.6250817568301,-0.16980063434973,5.3301379385581,2.6321715432675,-0.047659803487462,-0.84084033471114,2.4820199433405,-1.4886944165586,-0.34631773027424,0.55738816069969,-4.9135233029749,-0.03717789697391
0.915,2.1831600542399,0.25727800639206,-2.1992600546403,-1.0766014236016,0.30781400551378,3.8077338300136,2.5697337907203,-0.10827335840603,-2.2140840994372,3.1692474870751,-1.3432257713177,-2.2781608571438,1.0164762513474,-4.5269620825447,-2.4395586276782
0.92,1.8740400465602,-0.037674000936119,-3.1427200780801,-0.19408957995756,0.96147914732039,1.0171504547997,2.4015550654926,-0.16971143591134,-3.5721933136157,3.7133543687724,-1.0155307404535,-4.0672501454155,1.6584807314749,-3.9055230778363,-4.4915220560322
0.925,1.4812000367999,-0.34454000855997,-3.8640000960001,0.94556783277588,1.7952608817834,-2.7029513836578,2.1776432141983,-0.29241570373915,-4.5170250100935,3.9780819631569,-0.5571014917182,-5.1764819297657,2.479264543478,-3.0700360271787,-5.6911534038326
0.93,1.0722600266401,-0.58926001464002,-4.186000104,2.1988319473537,2.7601400814373,-6.7053951705525,1.8894240677591,-0.47198167900755,-4.8107793990902,3.891864432816,-0.073729180715474,-5.4365623572302,3.4337742261976,-2.0469580673918,-5.8962955045736
0.935,0.70196001743981,-0.73416001823999,-3.9284000975997,3.3741961002386,3.7568527128053,-10.132521879904,1.4999852341189,-0.61726898156967,-4.4394393048772,3.4520130528013,0.29317034554975,-4.9021285957852,4.4339938490126,-0.87714747300926,-5.2285869887459
0.94,0.40250001000001,-0.77280001920001,-3.0976400769601,4.2859939897517,4.6487203779303,-12.101635360693,1.014686954232,-0.64460058446664,-3.4862414643424,2.7042954171808,0.43336639622191,-3.7831002942836,5.3568171420963,0.37427677581407,-3.9563221255668
0.945,0.18321800455163,-0.72450001799993,-1.7066000423996,4.8077548694673,5.2873654946934,-12.013535647374,0.49191461670629,-0.55430513511223,-2.0303997673465,1.7173266327798,0.32951252025377,-2.2923651045771,6.0591838110202,1.6141661200564,-2.3632338572419
0.95,0.021380800531666,-0.61502001528001,0.019674200488966,4.8985260929438,5.5448047844376,-9.6898244474337,0.0046758421439703,-0.41642552048456,-0.22087681746051,0.57652155679241,0.064837295448357,-0.46941521408844,6.3968335107719,2.7290510092505,-0.59355053298332
0.955,-0.13524000336015,-0.48622001207999,1.7774400441605,4.600467446383,5.3479464382762,-5.3201119893416,-0.39533168435935,-0.32308329359624,1.7470234304633,-0.59821892129678,-0.22784270824286,1.6221989650227,6.244843612376,3.603763253256,1.4147562938693
0.96,-0.33488000831983,-0.36064000895999,3.17492007888,4.0214119005227,4.7057135220475,0.55062443777826,-0.71826757467035,-0.32687100859914,3.5337990049102,-1.6456676231191,-0.44316279496705,3.7555425516721,5.5198203630335,4.143749808366,3.693983587074
0.965,-0.59570001480004,-0.254058006312,3.8318000951999,3.3077875861282,3.7149620388584,7.019839559546,-1.0317392264389,-0.39211333118712,4.697846075313,-2.4062898978721,-0.55155969663638,5.4642501455802,4.2015087659596,4.291910656564,5.8649436902111
0.97,-0.89516002223974,-0.173236004304,3.6064000896,2.6093828718322,2.5410798096156,12.815046100693,-1.3777267219884,-0.42780204822482,4.8304886282056,-2.7965968980428,-0.58121761406863,6.0725777265623,2.3473501413554,4.0348851668271,7.0533501058169
0.975,-1.1914000296004,-0.11076800275198,2.6275200652801,2.0476907936599,1.380353506773,16.506563746144,-1.7164548731238,-0.37019333193702,3.7713806743418,-2.8489288158175,-0.56006205218232,5.0895170572433,0.092505417941322,3.4005477446527,6.3262351457228
0.98,-1.4264600354399,-0.053774001335992,1.2171600302398,1.6921215834017,0.41067922585751,16.991579108269,-1.9573092222497,-0.22518624163477,1.8173943127414,-2.6834355528881,-0.48295905170705,2.5680679009792,-2.367377354132,2.4521240585519,3.4235777495177
0.985,-1.5617000388002,-0.0064400001600147,-0.1403920034882,1.5427325510689,-0.26016892668083,13.837139791125,-2.0169106952603,-0.05248905971945,-0.4499232628847,-2.4398723080481,-0.32913117969221,-0.71057597283401,-4.8059926863762,1.2824407918633,-0.78612834614935
0.99,-1.5520400385597,0.0098210002439911,-1.0465000260002,1.5190714823947,-0.62225147436013,7.4879343203554,-1.8717593067902,0.079281215154212,-2.2269785444999,-2.2137095410992,-0.096766441758915,-3.4600594980183,-6.9992962124355,0.0074569962034854,-4.5556223026959
0.995,-1.3878200344802,-0.017452400433629,-1.3363000331999,1.4700034295956,-0.75022941693686,-0.71544799259431,-1.5784127286475,0.13330981843349,-2.8453336559861,-2.0281326314982,0.18075790533662,-4.5614277567832,-8.7526230694842,-1.2435553948721,-6.1525716814276
1,-1.0980200272796,-0.075992001888051,-1.09802002728,1.2133165819861,-0.76489802974238,-8.8979611198034,-1.2241170478427,0.11668444285925,-2.2248651606557,-1.8532475093135,0.44007682692241,-3.5726711084654,-9.9177161892113,-2.3421298398805,-4.8576304156368
1.005,-0.75992001888001,-0.13330800331194,-0.60858001511978,0.59343985190626,-0.79539693799216,-15.101674451431,-0.8709654367592,0.066277645262913,-0.79842358676572,-1.6504586044652,0.60530894543655,-1.0510197206352,-10.400439304979,-3.1774553137052,-1.394920069501
1.01,-0.45080001119957,-0.160356003984,-0.15649200388808,-0.46081951083271,-0.94733360290841,-17.762112224773,-0.55593092210813,0.02442520195443,0.64925108713527,-1.4003434375045,0.6156563937744,1.5854457892041,-10.162728155168,-3.6725580537839,2.4049260543065
1.015,-0.2311960057442,-0.16969400421596,0.023055200573054,-1.8987747786118,-1.2752225562127,-16.212863777363,-0.30071993231048,0.0086859832784245,1.3763315233428,-1.0977592033764,0.45507943323533,2.9440108097662,-9.2215271326573,-3.7954202535171,4.5029237188653
1.02,-0.1155980028716,-0.18837000467999,-0.21767200540816,-3.5442487042642,-1.7742177930753,-10.922575072063,-0.11528048943385,-0.0095164807087531,0.9964087523663,-0.73946305292551,0.16327668643487,2.3787926355814,-7.6448463073523,-3.5614116957082,3.7738602173215
1.025,-0.060536001504083,-0.22089200548801,-0.85330002120008,-5.1351320183819,-2.3963051115008,-3.3512114876143,-0.0075894276016903,-0.083768125007638,-0.3575650106432,-0.33347651318068,-0.18393544402974,0.19490404470861,-5.5446568001714,-3.0264898108362,0.67573915979794
1.03,0.0045724001140646,-0.25824400641593,-1.6937200420799,-6.3928871586348,-3.0703581504117,4.5190950289171,0.04107295603966,-0.23713475789209,-2.0572612868161,0.08065833164577,-0.51240436143691,-2.5212759571705,-3.0683158274319,-2.2742717893577,-3.0956011176789
1.035,0.12075000299961,-0.28754600714409,-2.4729600614401,-7.097174705624,-3.7068368114791,10.696792093968,0.10214396026631,-0.43102984347732,-3.4298167819717,0.43909432341424,-0.78108653729883,-4.5609406975111,-0.39038692299394,-1.4018323528524,-5.7066291369719
1.04,0.29012200720815,-0.29334200728802,-2.93986007304,-7.1468564987899,-4.1974308268425,13.595886997617,0.24798698678392,-0.59005332847026,-3.9993349112983,0.69498872884,-0.98715966667667,-5.1778099100016,2.2960684956617,-0.50810988877545,-6.2157117662448
1.045,0.46690001159961,-0.28271600702404,-2.9237600726401,-6.5915305144398,-4.4308333623512,12.496343543526,0.48178282536579,-0.65038830274024,-3.6398148434324,0.8551487593206,-1.1386141693638,-4.3464406013572,4.791827231439,0.314215310821,-4.8622136517661
1.05,0.57638001432032,-0.2814280069919,-2.3731400589599,-5.6185418480564,-4.3280091671781,7.8006594002356,0.73313528153715,-0.59981055691863,-2.5897676091124,0.98050404176415,-1.2155331448934,-2.6943915225621,6.9095055995334,0.98575599791826,-2.6267107103403
1.055,0.55706001383984,-0.31330600778405,-1.3459600334403,-4.4859251853892,-3.8830977812047,0.88660963543637,0.88857172920418,-0.49728615356024,-1.2106412890468,1.1513107782738,-1.1643900345168,-0.94292719891814,8.4955299464664,1.4491379735028,-0.54543308988042
1.06,0.39928000992039,-0.38640000960016,0.016808400417463,-3.428002843208,-3.1825718896152,-6.296865593208,0.84724364791852,-0.43414083291533,0.19091074756807,1.4098993224744,-0.94366644458363,0.48605862603614,9.4500555034427,1.6782943156422,0.83387175281956
1.065,0.15971200396758,-0.47978001191986,1.4651000363999,-2.5804081732487,-2.37806630935,-11.772635928037,0.60658059783855,-0.45249299969397,1.5193802509169,1.7094532548129,-0.57733890233593,1.5578467470267,9.7371017405282,1.6831760970786,1.6185965867355
1.07,-0.079212001967452,-0.53452001328018,2.7112400673598,-1.9579300260632,-1.6200104406915,-14.005890971907,0.28247160233538,-0.51060240795587,2.7236404009605,1.9159671320539,-0.16039165025721,2.5778181607576,9.3800120441278,1.5050348764998,2.3304778780252
1.075,-0.22733200564833,-0.48944001216001,3.4776000863999,-1.4850434230939,-0.9998926627129,-12.264476116218,0.02676726230796,-0.51368897483226,3.6680000291173,1.8794132894009,0.18516234028179,3.7008006574872,8.4442375325537,1.202516646723,3.4315824847594
1.08,-0.196742004888,-0.3316600082401,3.6064000895997,-1.0549851469992,-0.54267453442476,-6.8696667153693,-0.059852619131902,-0.37328497902585,4.1718175925748,1.5259039455225,0.36756003622064,4.6479685166743,7.0162252863674,0.83426028188779,4.8174280751725
1.085,0.050554001255889,-0.10143000252004,3.0364600754402,-0.58933253456981,-0.23750646640339,0.87252886928986,0.042319701321247,-0.080133463312067,3.9535378451315,0.90491564359745,0.37092366585968,4.8945176346986,5.1888335711369,0.44568907921047,5.6765428546922
1.09,0.48622001207987,0.12461400309599,1.9191200476802,-0.067579680041675,-0.066034052043405,8.9662211213413,0.288192874074,0.26379806890337,2.8560986509837,0.16818317075167,0.27050746727589,3.9325489196905,3.0586914524787,0.065527811565898,5.0125560968917
1.095,1.0207400253594,0.26049800647203,0.47012001168044,0.48367876141329,-0.0063789669951158,15.194246154774,0.60912632510751,0.50648615769113,1.0185371802376,-0.49392662638907,0.19380748142774,1.7050634448261,0.73330355709102,-0.28742075578159,2.4652445173347
1.1,1.5391600382403,0.25405800631187,-1.0078600250394,1.0270925300554,-0.020681768167591,17.798662877951,0.95055651726252,0.54106816546103,-1.1322207436933,-0.91473728039446,0.23548328991484,-1.221160899459,-1.6590472956991,-0.59277101217642,-1.2574773733894
1.105,1.9320000479997,0.092414002296164,-2.2443400557594,1.5469252989545,-0.038376221336464,15.969227109212,1.2800180975132,0.35650704890433,-3.0225923171611,-0.98528439990931,0.38680906387573,-3.8951496850511,-3.9635181999077,-0.82160814883794,-4.7102919708532
1.11,2.1091000524004,-0.18193000452,-2.9785000740001,2.0605547056743,0.050978354287808,9.9846084682261,1.5685551848822,0.036030056208106,-4.1411073046977,-0.66495459859984,0.54108570062972,-5.3892319593363,-6.0009606894974,-0.94066046406056,-6.5506800209036
1.115,2.0286000503997,-0.50876001263989,-3.0139200748797,2.6112206974617,0.37490652643255,1.1632783032203,1.769644938401,-0.30092777633277,-4.1442599735142,0.012357514477945,0.56848185096857,-5.2986764147369,-7.5791324392157,-0.92582385944884,-6.2525372255245
1.12,1.7098200424802,-0.83076002063987,-2.3441600582403,3.248166514071,1.0184834062789,-8.435802300857,1.8217309576997,-0.58420680263101,-3.0736485520576,0.93299064357984,0.3920630638636,-3.8009991023868,-8.5123686022365,-0.77654085545208,-4.2411281411072
1.125,1.2332600306401,-1.07226002664,-1.1978400297606,4.0045335398457,1.9554697909652,-16.463302521898,1.6884595924711,-0.81922784160628,-1.3379992303388,1.9128693891255,0.011358935968189,-1.4531455530179,-8.6482877583319,-0.52291810469069,-1.4438352994852
1.13,0.70518001752045,-1.1881800295199,0.056350001399195,4.8789214015579,3.0211312478015,-20.792445971852,1.3975566582415,-1.036441916522,0.4856496423219,2.7292022147407,-0.51935427419417,0.94238522617756,-7.8981084633072,-0.2229122615563,1.2642549778831
1.135,0.21091000523992,-1.1688600290398,1.0690400265599,5.824481654725,3.953994386019,-20.128015104736,1.0239756592019,-1.2326917922937,1.8521973487731,3.1682529262534,-1.1229649728124,2.6693470771701,-6.2646738036636,0.048100892914947,3.2442368549562
1.14,-0.21606200536731,-1.0078600250403,1.6325400405599,6.7456209371685,4.488593454219,-14.47594240748,0.634918047371,-1.3596035451208,2.4591644439723,3.083134956308,-1.7217041261425,3.326818760971,-3.8607840323749,0.21117722185168,4.0470296365334
1.145,-0.55706001383992,-0.75670001880003,1.70016004224,7.5072019957301,4.4516008097291,-5.2261388931052,0.24548583161652,-1.3521101333327,2.2831408410541,2.4506692197371,-2.2413543529458,2.8980451418222,-0.91053560104186,0.19772082864718,3.5056721868296
1.15,-0.80822002007961,-0.4991000124002,1.3137600326401,7.9602217057812,3.8170922582322,5.2694103675295,-0.18001949757741,-1.1794538767652,1.5504520659176,1.3904452612113,-2.5961544869165,1.7555144718824,2.2709620839259,-0.037550013799022,1.9421785284331
1.155,-1.0014200248803,-0.33488000831996,0.56994001416029,7.9746722613647,2.7041867204832,14.452951166658,-0.67538808174556,-0.90271920951025,0.54168929346287,0.11235411269409,-2.6800911256306,0.40224639545346,5.3179079057564,-0.50406216090933,0.12827229292798
1.16,-1.1817400293594,-0.32135600798382,-0.3896200096795,7.4720588044067,1.3282363189565,20.188101307413,-1.227518838596,-0.65993424222167,-0.53996767599532,-1.1761343124307,-2.401625695905,-0.77936611996098,7.8650311190806,-1.1644093007143,-1.1907542099283
1.165,-1.3813800343203,-0.46690001159988,-1.3878200344793,6.4551862567365,-0.06281724009152,21.125027515704,-1.7805811200566,-0.56348721060418,-1.5298552987265,-2.3244039880846,-1.7537727907531,-1.6687595888903,9.5971947380491,-1.9300428235257,-1.8331376523104
1.17,-1.5778000391996,-0.7406000184001,-2.2443400557597,5.0265905158863,-1.2388464629555,16.932986316913,-2.2568344201721,-0.62790027764579,-2.349738479188,-3.2273816073373,-0.86032367216208,-2.3818291297831,10.288455243767,-2.6701592316918,-2.2160112819473
1.175,-1.7033800423203,-1.0754800267199,-2.7498800683196,3.369451411972,-2.0185228099524,8.4393108660088,-2.5746169325663,-0.78293331079105,-2.935993480718,-3.8040645186394,0.048110790604766,-3.0023646149192,9.8279768107951,-3.23650228961,-2.8181391573746
1.18,-1.6969400421596,-1.4103600350396,-2.8593600710398,1.6855887838769,-2.2944411056416,-2.4314294954753,-2.6689552903222,-0.93351535816124,-3.1842109303162,-4.0137830741938,0.72057907213971,-3.4568096980061,8.2325083182408,-3.4987978022294,-3.604924588494
1.185,-1.5359400381601,-1.6937200420796,-2.9076600722398,0.12953942666141,-2.0647697158254,-13.094240116833,-2.5042468925496,-1.0327802721169,-3.1353646842723,-3.8769588107572,0.98598829165544,-3.55033864075,5.6440530717183,-3.3789113770008,-4.0306017522327
1.19,-1.2364800307202,-1.87726004664,-3.0074800747201,-1.222565333938,-1.4590208834152,-21.0040597868,-2.0844217191198,-1.11941818295,-3.0331632092696,-3.4487440916567,0.80659621834028,-3.1883910305542,2.3127262058789,-2.8716162753978,-3.6264519955279
1.195,-0.8436400209607,-1.92556004784,-3.0751000763998,-2.3717432489336,-0.73039954447722,-24.379629128389,-1.4667387192902,-1.2667062047989,-2.9764133700372,-2.7718500966735,0.25457213515378,-2.7106142254365,-1.4309247345867,-2.046378559232,-2.6154842890148
1.2,-0.42826001063988,-1.8321800455204,-2.9624000735999,-3.3849838017983,-0.19646763107948,-22.723595836584,-0.75319410675367,-1.4886046880878,-2.8449119238488,-1.8762737876975,-0.55443420970315,-2.56106010947,-5.2083894639229,-1.032998593043,-1.9114359471145
1.205,-0.08983800223253,-1.6164400401599,-2.69836006704,-4.3661357511075,-0.14157363119738,-16.820827833464,-0.062509349048687,-1.7144030070896,-2.6851497849163,-0.82316205813278,-1.5040920575407,-2.6862695193711,-8.6279987365157,0.0015321091703999,-2.2236123967371
1.21,0.091448002272174,-1.3041000324003,-2.4021200596802,-5.3958553083384,-0.7206897031238,-8.2073660603022,0.48870197455179,-1.8382486951968,-2.5506102281462,0.27510631273527,-2.4702071736658,-2.7481865412359,-11.32247785508,0.8790829604782,-3.1039840308175
1.215,0.05924800147153,-0.95634002376002,-2.0865600518404,-6.4676998176843,-1.9066218933223,1.3958017930514,0.80583059568029,-1.7839102405656,-2.3061031839108,1.2816248798322,-3.2970397188121,-2.5781749291757,-12.98788926535,1.4376881167236,-3.3433487093405
1.22,-0.18676000463979,-0.61824001535933,-1.7355800431203,-7.4734087982596,-3.5010334827188,10.133226340532,0.83897412484975,-1.5581839437113,-1.8921571989796,2.0615255347158,-3.8035121777219,-2.1263771966133,-13.419192979807,1.5598719062104,-2.4256736294737
1.225,-0.59892001487986,-0.31878000792,-1.2912200320805,-8.2534271087145,-5.1942188422359,15.971290001692,0.58441570606401,-1.2409166503137,-1.3695363745934,2.481227287141,-3.8328353671212,-1.41559092594,-12.537655753035,1.1986359925628,-1.0754879831613
1.23,-1.0883600270392,-0.041538001031879,-0.63434001576089,-8.6674030073426,-6.6441269748107,17.453121567187,0.081344923005152,-0.89926188552097,-0.7296572780497,2.4161054585109,-3.3188168269067,-0.63169331501049,-10.407577099371,0.39391984513912,-0.23343569225538
1.235,-1.5713600390399,0.22089200548794,0.29108800723153,-8.6362610446378,-7.5538828684426,14.565992147452,-0.58557550471312,-0.52357777797393,0.16002600298325,1.7963605154504,-2.3249373520216,0.093966874509713,-7.2396481210729,-0.72770704378246,0.039175052544559
1.24,-1.9964000495995,0.47978001191933,1.3846000343989,-8.1509494567909,-7.7379695803483,8.5758683436659,-1.3147422819177,-0.055709286301506,1.2291677527413,0.6569785366387,-1.0263495655424,0.91995002507325,-3.376568883621,-1.9728403224129,0.46046890189972
1.245,-2.3248400577602,0.75670001879936,2.4246600602392,-7.2757255515496,-7.1622723023763,1.3205267835799,-2.0324059467849,0.53884942167734,2.3008334281947,-0.85844625421572,0.36015124999872,2.066689166343,0.74194827941907,-3.1156309841187,1.6399172325697
1.25,-2.5212600626393,1.0754800267194,3.1942400793592,-6.1508157007202,-5.9433998637551,-5.2855461103654,-2.6919543125881,1.2286799736336,3.3234874658335,-2.5346201533881,1.658935010749,3.4232117746444,4.6307773155738,-3.9382057206555,3.4405733421678
1.255,-2.5888800643203,1.4586600362393,3.6064000895998,-4.9708274812416,-4.3136378523344,-9.6361772204947,-3.2411139770896,1.9250440101986,4.089145530996,-4.1263633345751,2.7705849699836,4.5636591777656,7.8211319619613,-4.2638101394751,5.0755414159871
1.26,-2.5277000627997,1.88692004688,3.8318000951996,-3.9323774249609,-2.5664787659285,-10.787127546367,-3.6159657424662,2.5330214667344,4.3893976079036,-5.3964527060169,3.6459878223984,5.0772050063864,9.9217218523795,-3.9798524685996,5.7455094357923
1.265,-2.3441600582407,2.2926400569598,3.9928000991999,-3.1768326134394,-0.99089523592416,-8.5982815358311,-3.7542096656508,3.0007631895067,4.3050513521971,-6.161031835372,4.2461730628144,4.7795562996621,10.670911370571,-3.0499004805032,5.2277016365835
1.27,-2.0543600510402,2.6275200652793,4.1860001039996,-2.7593703941919,0.19831271429509,-3.6553827144411,-3.6020415324396,3.3151854812839,4.0886376447116,-6.3212683624433,4.5453590056334,3.9651248300017,9.9714642530226,-1.5174751191932,3.973349765343
1.275,-1.6776200416806,2.8658000712002,4.3792001088,-2.6471764345833,0.91444738443406,2.880738470584,-3.1405962179478,3.4775553107296,3.9610050722,-5.8566355519503,4.5635173870376,3.3802443294463,7.9033412109674,0.49843204355779,2.8570279406182
1.28,-1.2364800307201,2.9946000743994,4.347000108,-2.7371211283257,1.2179014473609,9.5030741437784,-2.4164437091202,3.5001196672316,4.014401297896,-4.8053189789793,4.3700822177653,3.4976167815242,4.7145963147198,2.817586883913,2.7453996298158
1.285,-0.77602001928009,3.0139200748806,3.9606000984004,-2.884215939234,1.2995374989956,14.733858878266,-1.5216292187116,3.3980448743809,4.1179058381523,-3.2679677734054,4.0467092008325,4.129719047806,0.79289918602202,5.2213004125166,3.8268440490722
1.29,-0.35742000888057,2.96562007368,3.2522000808008,-2.9323609794477,1.4331035755233,17.457813200902,-0.56295964422207,3.1869415655491,3.9053081098469,-1.4176986030192,3.6554737205767,4.6254706257845,-3.3795364652893,7.4787165414207,5.1983738131973
1.295,-0.034776000863897,2.8947800719199,2.3280600578411,-2.7413511690265,1.8993754568162,17.010331070045,0.33894508182964,2.9163762897061,3.1312952069271,0.51922351123589,3.242371169756,4.1768519002615,-7.283829424069,9.3716151204741,5.3761273277467
1.3,0.18225200452771,2.7627600686401,1.2429200308812,-2.2115054606952,2.8917886299356,13.247028018533,1.0702204151845,2.666373814433,1.8105891836523,2.3028214815164,2.8524409633152,2.5076991198529,-10.42862249166,10.716094595623,3.4810057931779
1.305,0.31008600770379,2.5083800623202,0.099820002481318,-1.3105338527477,4.4374576573485,6.7782210062463,1.5636826802462,2.461381990282,0.12144743978668,3.7085712098607,2.527864226751,0.12404051540108,-12.412123574626,11.3810440832,0.10302705770375
1.31,0.36386000903972,2.0930000520004,-1.0046400249588,-0.088993643022206,6.3798698072135,-1.0129024725812,1.8045114145528,2.2263664880103,-1.5310740325615,4.5479085842851,2.2988466919069,-2.1687208798002,-12.974065437005,11.301961863546,-3.068283693743
1.315,0.35420000880078,1.5166200376804,-1.9577600486387,1.3315888888015,8.4394662636921,-8.4359099627109,1.8054901256372,1.8596727536175,-2.7216073525926,4.7012873277278,2.1803536406558,-3.6314618353648,-12.031035181081,10.488090114673,-4.6288852188537
1.32,0.30654400761534,0.84042002088099,-2.5599000635993,2.791355995426,10.31346462702,-14.098166355822,1.5876314312308,1.3152928567141,-3.2519689990862,4.158854039702,2.14975207936,-3.9678342469148,-9.6893568685749,9.0212095677428,-4.4502365523633
1.325,0.25695600638409,0.13717200340852,-2.6243000651999,4.1214220586938,11.753214494443,-17.112438947405,1.1824526208935,0.63050978480262,-3.0943328264269,3.034641164808,2.099671154358,-3.426368281526,-6.2316630905779,7.0433533083384,-3.3919091708735
1.33,0.2643620065683,-0.50554001255907,-2.1123200524809,5.1629184709858,12.595807709462,-16.955968610229,0.65262197211576,-0.077712073596586,-2.3437427160085,1.5334725279235,1.841015089974,-2.4357552272295,-2.0782756828765,4.7313169811867,-2.3011237026546
1.335,0.39606000984054,-1.0239600254397,-1.1914000296011,5.7932253287524,12.766970254628,-13.577192682573,0.11117171819502,-0.67827177008972,-1.2472345745828,-0.10640283627878,1.2120083765558,-1.3158043357012,2.2695193537062,2.2628706584915,-1.3771332206821
1.34,0.68586001703889,-1.3910400345592,-0.16035600398559,5.9617431263733,12.267827899733,-7.5638954229218,-0.28691809544875,-1.1249244492127,-0.11499755826072,-1.6501830957598,0.202148121479,-0.14470350013495,6.2943326807269,-0.21206021980839,-0.3487711307425
1.345,1.1076800275193,-1.6067800399191,0.71162001767885,5.7114118359259,11.146225474642,0.017768342662169,-0.39485808946406,-1.4714933454106,0.87561592188672,-2.8670562110434,-1.0458736154472,1.0082340036064,9.5274294366983,-2.5832672392149,0.94628870660889
1.35,1.5778000391991,-1.7098200424802,1.355620033679,5.1611773468022,9.4755875587409,7.67057477017,-0.15165433533238,-1.8011442837644,1.6367710248375,-3.5257716235466,-2.3402242651055,1.923895004102,11.608091042323,-4.7748729644787,2.2130170007919
1.355,2.0189400501599,-1.7516800435202,1.8450600458395,4.4580127134524,7.3711217215893,13.645993285288,0.37563037910993,-2.152926145395,2.1199628329712,-3.4259347500419,-3.5189433670225,2.4668689773332,12.332957969865,-6.7321145203354,2.9207694339577
1.36,2.3570400585594,-1.7677800439198,2.2733200564794,3.733353099846,5.0198504181873,16.637042412123,1.0434949270588,-2.4912769429562,2.4062053108833,-2.4669418943099,-4.4579966762219,2.6114022106578,11.68786118075,-8.4090578306697,2.8667992298972
1.365,2.5599000636002,-1.7388000432004,2.6597200660796,3.0933607779026,2.6618338547424,16.219582501518,1.7279255295014,-2.7310062187091,2.6150707064379,-0.71456259811599,-5.0711585923905,2.5277459957796,9.8532488364395,-9.7603836198767,2.4191817467538
1.37,2.6210800651202,-1.6325400405606,2.90444007216,2.6364973972241,0.50961468942369,12.798220457531,2.3704499488124,-2.7848138739887,2.8028665418772,1.578962008606,-5.3259837794441,2.5677526060577,7.1772327748379,-10.738110217075,2.2047620454724
1.375,2.5470200632799,-1.4586600362405,2.8078400697603,2.4575825675615,-1.3284344388192,7.3851608673514,2.960547535793,-2.6026884756108,2.8938910839576,4.0229540016529,-5.2296153782866,2.8363365423738,4.1177908171496,-11.293421862392,2.5795294720474
1.38,2.3538200584797,-1.2236000304006,2.250780055921,2.6125872600455,-2.8647043092804,1.2566410059448,3.4798177017889,-2.2080418445023,2.6886480802892,6.1944839542538,-4.7846327399624,3.0720037968955,1.1650003643103,-11.381054227899,3.2662560608733
1.385,2.0833400517604,-0.93380002319997,1.2461400309615,3.0689130862171,-4.2017745240417,-4.3267909656826,3.847342654953,-1.6902445870437,1.9685641817222,7.7518913562209,-3.984244140893,2.7651933816084,-1.2394335554429,-10.962768075191,3.4522331501097
1.39,1.79676004464,-0.58604001456044,-0.12525800311026,3.6900214633654,-5.4880712519478,-8.3689045751207,3.940953511088,-1.1255202441666,0.60611441675326,8.4897303723995,-2.8634784013178,1.4518042297757,-2.7687583183018,-10.010267871774,2.3281354707282
1.395,1.5649200388803,-0.19996200496882,-1.6422000407977,4.2719451169886,-6.8597593325317,-10.380604216625,3.691426411512,-0.5279329666746,-1.2893267271806,8.3217246803187,-1.533101991249,-0.82778123723917,-3.2543372534158,-8.5113602623188,-0.29076419605341
1.4,1.4554400361595,0.22701000563903,-3.0074800747178,4.6101568301524,-8.3702543818771,-10.384753398133,3.1471612875038,0.11034077316421,-3.3054971870528,7.2488937369506,-0.14815278344727,-3.5340992092,-2.7037881447189,-6.4810528329438,-3.6950334054074
1.405,1.4940800371206,0.69874001735976,-4.0572001007985,4.5643287876495,-9.9507214818191,-8.8064077954701,2.4603807410771,0.78814265185747,-4.8933834577863,5.3688271874161,1.1516008473842,-5.824239058106,-1.2955939439306,-3.9740472177356,-6.6239458370471
1.41,1.6744000415994,1.1946200296796,-4.7656001183992,4.0921224968841,-11.436418612508,-6.3514102053789,1.81294063865,1.4942420912831,-5.7261114992262,2.9149003506387,2.2790967224949,-6.8850344102151,0.64994493579509,-1.0921675617497,-7.9662381091995
1.415,1.9674200488794,1.6872800419191,-5.0876001263995,3.2409772361358,-12.635523778542,-3.7764441242916,1.321576537296,2.1775867311874,-5.7867683742631,0.26587995795228,3.2040804336869,-6.5431446892647,2.7238837264005,2.0174885210003,-7.3547165868418
1.42,2.3280600578389,2.1284200528789,-4.991000124,2.1172945318157,-13.387319103024,-1.655300307968,1.0083045449062,2.7504273518478,-5.2169526275883,-2.1144554046919,3.9328662489736,-5.3375606449628,4.5012153303994,5.1736692268743,-5.4181764996074
1.425,2.6854800667201,2.4890600618393,-4.6046001144005,0.86476173391524,-13.584041716394,-0.3540062280845,0.85765174250212,3.153656833632,-4.3616575983689,-3.7904453798855,4.481071967021,-4.0256551573175,5.6203075040617,8.1779054655906,-3.4464573383386
1.43,2.9656200736789,2.7498800683195,-3.8962000968015,-0.34484460412405,-13.163145553512,-0.1165910438378,0.86761848973096,3.3867152473364,-3.5980929850111,-4.4664306857993,4.8580195149144,-3.1343732772468,5.8518928072235,10.833227658321,-2.4836074407027
1.435,3.1008600770395,2.9173200724793,-3.0332400753616,-1.3293679639131,-12.091916685126,-0.87349719565789,1.0523359183766,3.4840902427651,-2.9514288651211,-4.0496377473643,5.0634519930248,-2.7578244027128,5.1417496877831,12.961334348554,-2.5804016968175
1.44,3.0171400749603,3.0074800747196,-2.028600050402,-1.9281631972093,-10.372506376637,-2.0901441049568,1.4169450364573,3.4954407582237,-2.2575682965225,-2.6452972751905,5.0899763833907,-2.5650508200188,3.6185993493502,14.416431415688,-2.9223855967696
1.445,2.6790400665611,3.0429000756003,-0.82754002056213,-2.034126487238,-8.0702109698129,-3.1532458372202,1.9004094636561,3.4621508502906,-1.3597653227395,-0.50414981372265,4.9390447352213,-1.9747369225396,1.5684890570265,15.095395497831,-2.5877689945858
1.45,2.1187600526405,3.0268000752,0.39928000991783,-1.616303244155,-5.3326607164902,-3.6574584176049,2.3473777334005,3.3948974877917,-0.072758067957373,2.031798245748,4.6411140358192,-0.63239996864511,-0.61677047261016,14.945596126421,-1.1561037118553
1.455,1.4296800355211,2.9366400729591,1.4715400365579,-0.73209534096769,-2.3743592596465,-3.264902767083,2.5909153624817,3.2802105182286,1.4628083564912,4.5561344488853,4.2558391387321,1.3080842204754,-2.5077657202408,13.971066183299,1.1457569717318
1.46,0.72128001792065,2.798180069522,2.1574000535988,0.47430873684036,0.56618393010597,-1.7617641380463,2.5579201182462,3.0929863745994,2.7549024041345,6.6233137997823,3.8402332668198,3.3045167240879,-3.7135616459754,12.236356883568,3.6110194747015
1.465,0.094024002336982,2.640400065599,2.3731400589597,1.7919810069658,3.27807805678,0.72698634485016,2.2762616493087,2.8263698230754,3.372327307961,7.8121461854319,3.4168025415752,4.4987452473841,-3.95599221571,9.8646945161999,5.3095693204119
1.47,-0.38318000951878,2.4729600614423,2.2089200548804,2.9774155463158,5.6344132538621,3.7009656824119,1.8226922443507,2.5313176295184,3.136730400117,7.8295884105611,2.9758088202095,4.2431806035538,-3.1295966992803,7.0280540018205,5.3636646135523
1.475,-0.65688001631969,2.2958600570403,1.5327200380815,3.7985629096891,7.623843849075,6.3226830828074,1.2692582175261,2.2742587118597,2.129669200824,6.6123397124885,2.5030190542231,2.700292780356,-1.3325708422086,3.9307641940358,3.469751323302
1.48,-0.68908001712031,2.1155400525614,0.40572001008211,4.0818206139919,9.3261442162986,7.7062938302386,0.64722327836959,2.0639071275416,0.52884059574643,4.3630937579025,2.0005070441104,0.53061124869506,1.1422217324374,0.79060777567139,0.41017019930932
1.485,-0.47978001191995,1.9287800479201,-0.74382001847777,3.7510752558249,10.84240976822,7.3857528482892,-0.02108139547803,1.8712013228644,-1.1895309637516,1.486621042789,1.4926853154061,-1.5871396446839,3.8566886926319,-2.1791608273581,-2.3388118911404
1.49,-0.068908001713228,1.7162600426406,-1.2847800319189,2.8467113232776,12.235003601292,5.3225825340378,-0.65643217175219,1.6663394574815,-2.2528448488039,-1.5329523565384,1.0239328881775,-3.100088174768,6.3059181612431,-4.7845075492734,-3.7811739086718
1.495,0.45402001127896,1.47798003672,-1.4039200348798,1.5213499896204,13.507639181165,1.6992464283112,-1.1250682458156,1.4113082811361,-2.3389429102397,-4.2295857403772,0.6356935066261,-3.4934432545976,8.0075528561591,-6.8615523137776,-3.9205041581269
1.5,1.0078600250383,1.2364800307199,-1.2010600298404,0.012705533911966,14.612948772512,-2.8336443543997,-1.3001798544188,1.096821724149,-1.7431831561614,-6.1955779104768,0.32969114152845,-2.458409643811,8.5856000952237,-8.2858978330885,-3.0304490764515
1.505,1.5069600374388,1.0207400253602,-0.11366600282603,-1.4079330778988,15.477498482188,-6.9744102937692,-1.1177319475372,0.78255383152016,-0.57570963099078,-7.1074691809712,0.066305556187152,-0.58114551089431,7.8375318949796,-8.9824163510873,-1.1088244526452
1.51,1.8676000463996,0.85330002119975,0.88872002207789,-2.4976589722649,16.029635933226,-9.2944009046092,-0.60981550526205,0.54200901661359,1.1587180745289,-6.7780863464236,-0.18961783794879,1.2405238895842,5.7767563723809,-8.9339586005624,1.4510944491964
1.515,2.0414800507193,0.7341600182398,0.95634002375996,-3.0874437381934,16.209074785591,-9.0622737365135,0.10565093070166,0.40087997487749,2.2145930585257,-5.2161996487775,-0.43318958529026,2.7966808132165,2.6428664267533,-8.1845669483271,3.5404334930775
1.52,1.9931800495199,0.64400001600004,0.50876001264074,-3.0955421099051,15.949484926522,-6.4715342347022,0.88758134569417,0.34112445274193,1.662279082006,-2.6479320230083,-0.62682591351737,3.4335622381086,-1.1256196502688,-6.8339978436737,4.2438198803847
1.525,1.7227000428013,0.55062001367983,-0.96600002399683,-2.5270910705649,15.170946719852,-2.160869613252,1.6216066764279,0.31170078393159,0.30363345350834,0.51563923356703,-0.71980609640532,1.8809434031775,-4.9546802501138,-5.0242308563833,3.094144090701
1.53,1.288000032001,0.4250400105606,-2.8336000703962,-1.4798357878768,13.812455392592,2.6654286474453,2.2156172799762,0.25144047870542,-1.9731421068126,3.7466872220143,-0.66443610930157,-1.5526280910979,-8.2252658382716,-2.9212738710345,-0.31588319834009
1.535,0.77280001920156,0.24214400601681,-4.7656001183958,-0.14269289719917,11.879561735953,5.9127141034112,2.5955258319266,0.1356622492027,-5.1768573234054,6.4912071661204,-0.44637280451917,-5.3201618540212,-10.376213326475,-0.69635854660749,-5.4141697898677
1.54,0.2540580063128,0.019642000488791,-5.731600142398,1.2377481522054,9.4696299709396,6.1017703530829,2.7142630414331,-0.018591887732387,-7.4393232482057,8.2773054747138,-0.11346460052659,-8.6157844501391,-11.001588227062,1.4890000037545,-10.031909086642
1.545,-0.19964000495857,-0.23409400581575,-5.4096001344005,2.4178267129679,6.763454455709,3.5298923643731,2.5343272656859,-0.17738939270154,-7.608616481096,8.8118483111742,0.23999086676793,-10.257292689233,-9.9239849971726,3.4910011327251,-12.00879369627
1.55,-0.54418001351952,-0.53130001319993,-3.7352000928039,3.2084140079219,3.9919261427018,-1.0873140815744,2.0312889222214,-0.31284301560432,-5.8584090553457,8.0225733592883,0.52742086260151,-8.4725091061672,-7.2299274321949,5.186081667179,-10.414414797815
1.555,-0.77280001919918,-0.89516002223958,-0.54096001344704,3.5000053023702,1.3729441980707,-6.7715857490319,1.2372642439042,-0.4509128530467,-2.3177697103312,6.044256021108,0.70354642723812,-3.5790994543301,-3.2618390074475,6.4728303573889,-5.2042325416543
1.56,-0.87906002183974,-1.339520033279,3.5098000871907,3.2718968255772,-0.96037069375561,-11.051876312586,0.24517810638509,-0.68025926321238,3.0762292015296,3.1826817024864,0.7486641576483,2.7027431402997,1.430615541244,7.2757766985947,2.5065727506544
1.565,-0.89516002223959,-1.8321800455187,7.4382001847911,2.5969412517085,-2.990089348799,-11.529487707039,-0.81768526820603,-1.0705343294093,8.688603804702,-0.13119464875351,0.63897178687855,9.2865631338029,6.1710885616104,7.5491047731529,10.335599387734
1.57,-0.88228002192011,-2.3023000571991,10.239600254394,1.6344523867736,-4.7816063394419,-7.6016556176119,-1.8059074167259,-1.6089876421935,12.338590380995,-3.4050300151935,0.33579571704167,14.687416499245,10.256771395212,7.2772540515084,16.13409783141
1.575,-0.92092002287948,-2.6243000651988,12.042800299196,0.59915573172156,-6.4242338749538,0.51544733799902,-2.6051484108933,-2.2002568536955,14.177350436257,-6.1595235116295,-0.21351429779758,17.029707314737,13.063771054191,6.4708276850801,18.840032803105
1.58,-1.0465000259997,-2.6597200660801,12.429200308799,-0.28994942841915,-7.9925713600917,11.655195055973,-3.1769407264609,-2.6742261286713,14.313267224825,-8.0003678334612,-1.0572532212699,15.889188151904,14.141828459588,5.1583077458695,17.900753710612
1.585,-1.2622400313591,-2.2894200568804,12.075000300001,-0.86579236626995,-9.5353433034217,22.789497663219,-3.5185231610988,-2.8358838469167,12.554350831935,-8.686775152476,-2.1789214238578,12.85414540255,13.283429788211,3.3775022036062,13.67948200064
1.59,-1.5262800379196,-1.458660036242,8.2754002056092,-1.0527187266708,-11.08610274026,30.715178631552,-3.6119215056274,-2.557737338367,9.3677585860859,-8.1879430451494,-3.4282873916583,9.5364135477473,10.555633277239,1.1738555082013,8.4588617757764
1.595,-1.7871000443994,-0.21445200533033,5.0876001264077,-0.87663291927289,-12.682409961182,33.680213046861,-3.4341560751153,-1.8147899092886,5.0795688162441,-6.6967937797689,-4.5214680197473,5.7516172358138,6.288111741913,-1.3887047091539,4.7511850048741
1.6,-1.9770800491193,1.3169800327159,0.61180001521078,-0.44891188149008,-14.363734565507,30.762533935189,-2.9778716709711,-0.66045110374966,0.93390749101465,-4.5730949419755,-5.1194252919385,1.2120878161285,1.0191161163337,-4.205817492854,2.1567706660797
1.605,-2.0672400513601,2.9656200736765,-3.8962000967889,0.059163226649435,-16.121286302337,21.212906502651,-2.2785904535907,0.79830716132369,-3.3971776011211,-2.2322696343994,-4.9205709520889,-3.4985382909047,-4.5893883291508,-7.1089575758677,-1.8912868672026
1.61,-2.0543600510399,4.5080001119962,-7.0196001743924,0.44091442805059,-17.822928442605,5.3927169628118,-1.45577447904,2.436743591032,-8.1655226595729,-0.042921343001632,-3.7284591646489,-8.0166727433897,-9.8477747772072,-9.8503972459093,-8.0302004364837
1.615,-1.9609800487204,5.7638001431967,-8.5974002135961,0.48748482615951,-19.183256330262,-13.436660078082,-0.69340533302177,4.1312383649965,-10.534131330349,1.7135681966831,-1.5057703618624,-12.040763475942,-14.130524304227,-12.105942511551,-13.765124717914
1.62,-1.8032000448,6.5688001631982,-8.4364002096005,0.042687389011956,-19.809185702988,-30.182552658252,-0.15536746485029,5.7338782658693,-10.614806209446,2.8388732781645,1.5920245788819,-14.090077904539,-16.951704489257,-13.499475739081,-16.286639688214
1.625,-1.6067800399206,6.8908001711999,-7.5348001872023,-0.93190107030092,-19.300767328237,-41.497126414394,0.08036934579661,7.0784245677867,-9.5978039422808,3.2158527539952,5.2312631054207,-11.955348727679,-18.018635615434,-13.649680135416,-14.36191861218
1.63,-1.4007000348001,6.8908001711995,-6.6654001656024,-2.321298112621,-17.366624782036,-45.485396940649,0.033798182710216,8.0405896740175,-6.993778741389,2.8211609366099,8.9564235157498,-6.9604959724126,-17.261073265695,-12.233794755225,-8.3096910254752
1.635,-1.2107200300809,6.6976001664003,-5.4096001344031,-3.8826333173119,-13.923886777043,-40.087027318838,-0.21368538302662,8.6009915027245,-4.1142091750153,1.7368257516978,12.249995783082,-2.694454054021,-14.832352475773,-9.0576139899361,-0.95070281088578
1.64,-1.0497200260804,6.5688001631996,-3.1491600782458,-5.3208388100012,-9.1519229336789,-26.175418215479,-0.58126551975748,8.8579945660821,-1.8381422705045,0.15495139740941,14.602346406584,0.047932933764667,-11.082417718686,-4.1198568685345,3.1884931730238
1.645,-0.90804002256075,6.6010001640002,-0.90482002248575,-6.3733225371933,-3.4699912960715,-8.4477934019695,-1.01391186152,8.9556957284329,-0.4031292443374,-1.6354008495458,15.632557840629,0.68904054278825,-6.5049788356955,2.3428780482295,2.2484966934276
1.65,-0.7567000188001,6.8908001711988,0.30654400761278,-6.8704656063396,2.5470448344962,9.3902624518922,-1.454337021622,8.9962300118129,0.52639086613805,-3.3014252527761,15.235708541548,-0.13317994583289,-1.6657660700364,9.8463824574447,-1.0886424027331
1.655,-0.60214001496066,7.3094001815988,1.085140026958,-6.764498632263,8.280317496563,25.474094834318,-1.8176186507919,8.9881984003807,0.90228353890671,-4.5520488682578,13.646956332485,0.16849362195523,2.8764088825934,17.697481592209,-2.4449711242358
1.66,-0.48944001216016,7.7602001927988,2.4021200596765,-6.1296866685399,13.179809039517,36.499132525353,-2.0078227170124,8.8367093485102,1.1791800875069,-5.1998800020657,11.352925648096,0.90044428418949,6.6417953936168,25.081290649735,-0.015826247346677
1.665,-0.45724001136036,8.0500001999997,3.6708000911966,-5.1345436224448,16.878747892096,39.079611752145,-1.9713514102833,8.4330034795864,3.1244093721712,-5.1597488387696,8.9113765040875,2.0740230934212,9.2844266955743,31.179402552448,3.6020787209414
1.67,-0.48622001207977,8.1466002023997,4.2504001055984,-3.9943850435586,19.294112831209,32.702855707598,-1.7330951690793,7.7790234370154,4.8535310157083,-4.421059502907,6.794300817066,4.7995938693123,10.625191536291,35.291227348329,5.4568291827114
1.675,-0.52486001303999,8.0178001992008,3.9606000984009,-2.9193057890299,20.659679179689,19.692562026501,-1.3585105071541,7.0179566744461,5.2247154834855,-3.0572160584658,5.3009690296747,6.9577925144728,10.662427920356,36.933035851954,6.2519981444218
1.68,-0.50554001255983,7.6636001904014,2.7015800671233,-2.069531277825,21.453898242602,4.6511637999896,-0.8884639541974,6.361047630319,4.7928484005385,-1.2622002868534,4.5307000347122,6.9850328883172,9.558669175246,35.898698756706,7.3599390255214
1.685,-0.3799600094408,7.1484001776016,0.67298001672571,-1.5219318259094,22.234195103824,-8.7929013792557,-0.32532570260218,5.9541918293629,2.4410677031292,0.66024024087839,4.420089993331,4.1381663156295,7.6030565427832,32.276882935497,6.8859687801503
1.69,-0.13073200324856,6.5688001632017,-1.7194800427135,-1.2587073159522,23.448464011722,-20.140084142587,0.33791039148789,5.7926261039209,-1.3925480506282,2.386634184951,4.8308559453643,-0.78116697532171,5.1552310399992,26.429214217041,1.8636315220538
1.695,0.21606200536695,6.0214001496013,-3.9928000991936,-1.1922901077131,25.286670325777,-27.951016581464,1.0725441081531,5.7748896712816,-5.161871655788,3.6831307553448,5.6082409688116,-5.651744979335,2.5842754320647,18.939803787743,-6.5578553253213
1.7,0.60858001511934,5.6350001400013,-5.6350001399954,-1.2130356127611,27.612166838118,-29.997257487994,1.7747013276097,5.8090272963765,-7.3807742657019,4.4526339693601,6.5543268673743,-9.8811653043053,0.21749035774237,10.545284165171,-13.12380711375
1.705,0.98854002455846,5.4740001360004,-6.2468001551982,-1.2203222768453,29.994945094449,-26.550787906093,2.2918188675223,5.8720089792088,-8.1737880459992,4.7052923350189,7.3891368100329,-11.00772210839,-1.6931896304261,2.0495061453382,-13.983106004772
1.71,1.3105400325594,5.4740001359999,-5.8604001456013,-1.1165561018278,31.840606527223,-18.471229203672,2.5160869965495,6.0124323207746,-7.6635842910954,4.5037232006333,7.8173714542791,-8.6073418592921,-2.9877354584676,-5.7712708745293,-9.702803372482
1.715,1.545600038399,5.4418001352001,-4.7012001168032,-0.79420059304011,32.569963426236,-7.6935513451784,2.4474585083099,6.2315715225427,-5.0429251831676,3.9276296002296,7.6822718854273,-5.4119963040824,-3.6018588127974,-12.256797353782,-3.9835087220534
1.72,1.6840600418396,5.1842001288008,-3.1040800771249,-0.1552553587857,31.767713180084,2.4122652689875,2.1773782305011,6.3280737967335,-2.212088401711,3.061190731952,7.0470971179599,-1.5314419384576,-3.5619059205106,-16.92466970647,-0.24472241559326
1.725,1.7194800427196,4.4114001096023,-1.4232400353649,0.83947155040996,29.270273200768,10.522834086893,1.826977023218,5.9589562753165,-0.3252438351285,1.9985166741812,6.112215841423,1.3660899382232,-2.9725494011743,-19.495936449251,1.3792078458844
1.73,1.6389800407203,2.8690200712846,0.37674000935447,2.1326289957748,25.212511019677,16.298230184704,1.4744220514389,4.8170687461683,1.0870432254791,0.86640475273209,5.0535207783621,1.8993315633462,-1.997129678921,-19.89111303575,2.2660339969167
1.735,1.4329000356002,0.50876001264709,1.9513200484752,3.577700638923,20.044257155206,18.791029970695,1.1175038743976,2.7122385387305,1.9540328882248,-0.16455079301172,3.9012266423506,1.8185554712247,-0.8301400284555,-18.212956821569,2.4614746514038
1.74,1.1270000280012,-2.3312800579113,2.6371800655178,4.9842791327639,14.471213835206,17.35285716207,0.71213468688864,-0.3023294270489,2.4855170393627,-0.92209846081693,2.4915582602002,1.744985536483,0.33573797945369,-14.731821397639,1.7904238119294
1.745,0.74060001840094,-4.9910001239919,2.66938006632,6.1716647489132,9.277545237515,12.181477949449,0.24880933736637,-3.7692934712599,2.5292634324817,-1.3125816810363,0.50233737633265,2.5071424902272,1.3406259526836,-9.8806980446248,1.4185012682497
1.75,0.31008600770542,-6.9230001719943,2.3280600578411,7.0097242001491,5.0799100529975,5.2575230124697,-0.21517744518768,-6.9317599801017,2.7634798281235,-1.3648590530861,-2.3984017397956,3.3839441498338,2.0771034728235,-4.2540217929734,2.6291559988044
1.755,-0.12686800315098,-7.7280001919973,1.7291400429618,7.4443306712037,2.1041618523751,-1.4707634934038,-0.59274095386874,-9.0920898351291,2.6434315409864,-1.1940979293652,-6.3130022064862,3.0361242462962,2.4939506085682,1.4079700978774,4.3652332806582
1.76,-0.51520001279848,-7.5026001864008,1.1302200280819,7.5008684696919,0.06810040143764,-7.2246533806093,-0.82457866765824,-9.9304111215608,1.4427776867005,-0.92541076255447,-10.886818642678,2.4286437623493,2.5875324969729,6.2734951117931,4.0537171498881
1.765,-0.77280001919933,-6.2468001552036,0.6407800159216,7.254968902768,-1.7890710391654,-11.132068841294,-0.90699351042731,-9.5967856344017,0.53541945020103,-0.64656547893222,-15.252573238506,0.84332806240457,2.3885535913881,9.5280283297659,1.2063895196307
1.77,-0.84364002095961,-4.186000104006,0.49266001224041,6.7844461330629,-4.495677106595,-12.612984711155,-0.87123062552061,-8.4825247829984,-0.060107067812027,-0.41031870700214,-18.283733120276,-1.1656708076431,1.949640284543,10.527346913202,-2.106465785881
1.775,-0.69552001728033,-2.0640200512869,0.76636001903918,6.1367039141824,-8.9627124420262,-11.009752138401,-0.73548758224387,-6.8565259507916,-0.25817561734126,-0.25265690760292,-19.067984271889,-1.4575080322596,1.3348960242818,8.9539694576339,-3.3844328216816
1.78,-0.32200000800128,-0.060858001517893,1.1398800283188,5.3294594402148,-15.553121125802,-6.5574395602724,-0.48423122784128,-4.8462790284475,0.29175674169831,-0.19228334109992,-17.260117996606,-0.59104777901485,0.61090705477118,4.9219420467595,-1.6130080683495
1.785,0.29076600722197,1.7130400425541,1.0883600270402,4.3671290810892,-23.802370993728,-0.83177676998393,-0.079875418716542,-2.5432647327893,1.2784476303962,-0.2121854459686,-13.07754303919,1.2227152534694,-0.16021508868196,-1.0099417273173,1.7293500629111
1.79,1.175300029197,3.0042600746358,0.42826001064215,3.2531324240949,-32.482278119587,5.4084623306605,0.5263441772819,0.13022025741122,1.8294724595669,-0.24658394102875,-7.0682802286652,3.1321338095493,-0.92396953004058,-7.9161662152341,4.2284273461064
1.795,2.3248400577563,3.7674000935972,-0.60858001511657,1.9971583299697,-40.016467302434,10.607653771944,1.3801163295248,3.1254538000787,0.89821137648441,-0.18739438400548,0.05042412439996,3.0016016501223,-1.6314923617734,-14.642266887647,4.4519998890854
1.8,3.6708000911956,4.0894001015993,-1.8032000447961,0.62185468623828,-45.019638872446,12.748064216293,2.4995573772025,5.8778137192164,-0.79956431117598,0.096874493476374,7.4030171860164,0.57547732176645,-2.2329695162647,-19.974813754671,1.9354809741636
1.805,5.0554001255954,4.0572001007994,-2.8078400697568,-0.82957210619718,-46.656142158612,11.715079981039,3.8457484481915,7.8609376882477,-2.9665882096968,0.74401278452892,14.023021836996,-3.3331952728751,-2.668318433891,-22.827128413141,-2.8321905532976
1.81,6.3756001583955,3.8318000952006,-3.3810000839981,-2.287521557894,-44.708726359334,7.3678565417449,5.307579910188,8.9849697782016,-5.0107543949711,1.8790539085148,19.058406040452,-6.6484474324676,-2.8576893419938,-22.415023565267,-7.8891544188024
1.815,7.3738001831967,3.3810000840007,-3.2522000808004,-3.6497623563682,-39.513478066518,0.26553856939357,6.7270792928285,9.2067640073063,-5.3382730048382,3.5744643177002,21.873245009028,-7.53282651761,-2.6950733141382,-18.392400549333,-10.221953323593
1.82,7.9856001983979,2.7917400693625,-2.4504200608827,-4.7752927396806,-31.880018439882,-7.3261895961139,7.9308997903889,8.5414256000329,-3.947863465061,5.7906542576455,22.009061807,-5.9503317906579,-2.049746874812,-10.931162735103,-7.9858295072295
1.825,8.1144002015996,2.018940050162,-1.5262800379231,-5.478172263551,-22.943140685638,-13.580462425858,8.7620880496695,7.1959543660116,-1.6443759406267,8.3329007520003,19.339101904925,-2.0852459435586,-0.78117955105467,-0.73556548275672,-2.3640349266735
1.83,7.8246001944009,1.0400600258428,-0.76958001912255,-5.5355922442987,-13.90105893204,-16.935663970423,9.1497917838323,5.2219894218039,0.42471561811437,10.86520861532,14.349444520509,2.0982231327041,1.230144091355,11.026417841206,3.4636189077196
1.835,7.0840001760025,-0.10722600266126,-0.43792001088112,-4.7372824389331,-5.7754658334951,-16.265042040499,9.110644248016,2.5335331141346,1.5234885317264,12.982532845627,8.0109309299533,3.9187078945238,4.0409414174495,22.880919192795,6.4019587053352
1.84,5.9570001480039,-1.3491800335162,-0.9885400245581,-2.9750972527732,0.70330368386243,-11.844027978057,8.636204986333,-0.68891528281466,1.0776609032512,14.303309032477,1.2629925010979,2.9519391242894,7.6035218414433,33.263974987037,4.953457220447
1.845,4.508000112005,-2.5373600630356,-2.733780067914,-0.32755858411055,5.1927148307612,-4.976920325601,7.6583394858099,-3.9947674082285,-1.5433791345253,14.547125473707,-5.2410428351627,-0.35781518567996,11.736383212141,40.73781393853,0.12674243526013
1.85,2.6951400669663,-3.5742000887955,-5.6672001407897,2.9265636384221,7.8753775014238,2.2979462625844,6.1169066965335,-6.8569750502815,-5.316735645594,13.584485562324,-10.951731605123,-5.088908948558,16.116773963132,44.16835100158,-5.6021931604053
1.855,0.69230001720707,-4.3792001087983,-8.8550002199888,6.3746860461052,9.449846746533,7.7567370176043,3.9780650052261,-8.7882939392763,-9.3550733027619,11.435851061825,-15.294217003463,-9.9312360583454,20.299654490258,42.861123430823,-10.494193109791
1.86,-1.262240031353,-5.0876001263974,-11.270000279991,9.5783451358743,10.824118316527,9.323566597151,1.3027239590173,-9.6400373348744,-12.730484123352,8.2090176914307,-17.822587973791,-13.951115552871,23.758474074952,36.657276209566,-14.279271828131
1.865,-2.939860073034,-5.6350001399979,-12.525800311196,12.170751033418,12.727790299379,5.679409723291,-1.5953284805853,-9.6853788055899,-14.343422702051,4.0471343159344,-18.354130710845,-16.138165494923,25.937696970769,25.972966937154,-16.973757398649
1.87,-4.1860001039956,-6.279000155998,-12.397000308001,13.908546217267,15.523674502434,-2.7065219498619,-4.2399443055739,-9.2672052508175,-14.152254357382,-0.8283380048635,-16.92136544081,-15.966785301036,26.310556718032,11.769431796025,-17.682351896088
1.875,-5.0554001255967,-7.5348001871963,-10.110800251208,14.670934528016,19.184557036713,-13.382781485551,-6.3093343614739,-8.7253455607644,-11.916681830828,-6.0220570735509,-13.78452399683,-13.516395053323,24.442709833045,-4.5403910847499,-15.258902993401
1.88,-5.6028001391981,-8.7584002175947,-6.6976001664123,14.414350627974,23.284975486514,-22.790692050131,-7.7449537235265,-8.4774535505211,-7.8766437634323,-10.937070361624,-9.6065648070811,-9.1019514507549,20.064499801238,-21.246174619471,-9.8899823256733
1.885,-5.9570001479986,-9.5634002375974,-2.8014000696142,13.136225526224,27.094489366762,-28.167540396538,-8.675734185194,-8.5547055437147,-2.9063409308398,-14.877656218745,-5.4619338571437,-3.3471626940307,13.147500949467,-36.558470939802,-3.1868659673109
1.89,-6.3112001567987,-10.175200252798,-0.75026001864736,10.893475490194,29.852155789877,-27.918197551821,-9.3118595005985,-8.4127193089427,1.2231902184311,-17.265457434614,-2.4570349693808,2.6160483415163,3.967943041239,-48.862772557665,3.1819415001378
1.895,-6.6654001655987,-10.754800267198,0.55062001367517,7.8698704589058,30.993584196646,-21.004806813044,-9.7650802831642,-7.8937651476126,3.1007173363641,-17.871263679462,-1.2838547629405,6.3979359435465,-6.8710575233078,-56.948552883642,7.9053095660826
1.9,-7.0196001743988,-10.915800271199,0.16164400401769,4.4208581727439,30.141745400627,-8.4379327153276,-9.9523271737064,-7.6384659944854,2.9134903654026,-16.898548675079,-2.0804594344276,5.9740646226818,-18.477688181851,-60.157710452959,9.0333072871376
1.905,-7.2772001807993,-11.1734002776,-0.38640000959803,1.0180254559365,27.02987703231,5.9128717738095,-9.6890001958948,-8.0547666056893,0.69995915608408,-14.837927915789,-4.4938267994539,1.9769466615155,-29.774303389259,-58.435589417841,4.7528257303164
1.91,-7.3094001815995,-11.753000291999,0.13041000323833,-1.9076379621254,21.58883435839,17.57728240227,-8.8809524836648,-9.1765032246606,-1.8552022479044,-12.230126872046,-7.8425643725236,-3.054718664101,-39.638151622502,-52.278872996681,-3.4409910084989
1.915,-7.1162001768011,-11.753000292001,2.4794000615907,-4.1524906337126,14.106627421444,24.133797925819,-7.6497069662162,-11.180441799434,-1.6099769714858,-9.5221540018837,-11.526387122425,-5.9081796069089,-47.046898578835,-42.615635439664,-9.9365244305872
1.92,-6.6332001648014,-11.592000288001,6.8264001695835,-5.8392783473696,5.3040778987292,25.280612711152,-6.2725787669198,-13.468338958001,2.3882464610372,-7.0382013551792,-15.350880839548,-3.3083156385427,-51.202305570567,-30.67307104077,-8.7570213569507
1.925,-5.8926001464032,-11.753000291999,9.7244002415889,-7.3488882285066,-3.7336018630831,21.885768517152,-5.0230200656833,-14.753624479014,8.6456356919253,-4.9854485338774,-19.173913107891,5.8357234954782,-51.619425271726,-17.851225726687,2.0139975277165
1.93,-5.0876001264031,-11.205600278401,10.948000271995,-9.1186310857591,-11.838576356866,16.333834657494,-4.0291840952636,-14.959615890083,14.054494497363,-3.4717954668171,-22.3671768239,17.332696087541,-48.176056995891,-5.5783751218721,18.297842964958
1.935,-4.3148001072034,-11.044600274402,10.754800267201,-11.438454555883,-18.226864560626,11.273502405574,-3.2989460389463,-14.762158398512,16.399892394931,-2.5415428125141,-24.019016155079,23.884871289387,-41.122098569121,4.864110003485,30.853426562665
1.94,-3.6708000912021,-11.173400277599,10.465000260001,-14.344315179308,-22.846595426058,7.109544145341,-2.8322191833547,-14.187237989279,15.302573201684,-2.1789340067078,-23.530457702988,21.512447117424,-31.052100259489,12.522629237412,30.354541211713
1.945,-3.252200080802,-10.851400269601,8.9194002216061,-17.604510331216,-26.223396729235,2.8235285636631,-2.6014072493918,-13.588145793014,10.630732680735,-2.2558360476686,-20.848952585831,12.17604880975,-18.843898049942,16.902148368803,15.619366454892
1.95,-3.0396800755205,-10.239600254402,10.593800263193,-20.780349782394,-28.967887655567,-1.1236417341795,-2.5840789625025,-13.155864835295,5.8004192618376,-2.5230224974742,-16.473146546639,1.9614900885097,-5.5656420347433,17.993282149725,-3.1968537542924
1.955,-3.0364600754404,-9.2092002288044,9.5634002376049,-23.36136325359,-31.486183176106,-2.329243183419,-2.8096615337765,-11.669777190507,4.8558132215479,-2.7297647685851,-11.347948063239,-2.8942646128333,7.6404495582886,16.200343768908,-12.194061421915
1.96,-3.1878000791991,-7.792400193606,7.6958001912066,-24.927016604818,-34.027792330327,0.51991154237388,-3.2147615443859,-8.7013230838019,5.6753560720497,-2.7581227872037,-6.4338219333829,0.73590197630909,19.674830505624,12.210764628568,-5.3978515691613
1.965,-3.4132000847994,-6.3434001576056,6.5044001616057,-25.236536498853,-36.766734088987,5.6245112060204,-3.6191614240858,-5.3102735413246,6.5958989100501,-2.6093327642859,-2.2143313337128,9.5561681620546,29.579719930274,6.8478190660743,10.865919057059
1.97,-3.7030000919989,-5.2164001296051,4.7334001176063,-24.230134554016,-39.731550016953,10.396306807454,-3.8879881829147,-2.1400883830024,8.8520202275047,-2.3058579006644,1.4092170974454,14.559828600109,36.614093192638,0.95908376215741,23.028579615498
1.975,-3.9606000983989,-4.3792001088027,3.2844000816068,-22.020356287931,-42.774645406436,13.12739052337,-3.9799112402536,0.029446291303838,8.3846730551189,-1.8728197238664,4.7126534467646,12.450659416877,40.305534777092,-4.6349457765762,20.645249912906
1.98,-4.1538001031992,-3.8318000952032,1.732360043046,-18.889186009277,-45.585230076508,12.480714109264,-3.9124846619708,0.34717318690814,3.1442447377915,-1.3741273030499,7.481329673873,6.2131929306238,40.478026743609,-9.1844397890999,6.0711149984226
1.985,-4.2504001055996,-3.4132000848019,0.24085600599046,-15.244503191928,-47.592705690727,9.4075651639827,-3.7538434352121,-0.33146340464542,-1.7851695983276,-0.89539226114939,8.8700638322035,-3.4147870132134,37.252883142976,-12.102597778055,-8.4924618663681
1.99,-4.2504001056001,-3.1459400781608,-1.2203800303146,-11.536114730262,-47.924830010699,6.3927075175426,-3.5763700145116,-0.73935181149541,-4.7114725897107,-0.51208683022921,8.1481282673849,-11.055047850058,31.02383079717,-13.084111526696,-14.866665781955
1.995,-4.2182001048001,-2.9527400733599,-2.0962200520764,-8.187741719461,-45.706175407803,2.1382131288066,-3.408494180072,-0.94263667568463,-6.0221869923281,-0.31399054039263,5.3768254045423,-10.337870584417,22.410387618006,-12.182485209664,-13.2638881649
2,-4.1538001032003,-2.8078400697616,-2.2604400561597,-5.5329195285254,-40.569066962396,-5.4470294961378,-3.2738419768602,-1.2079976619396,-4.4172237598381,-0.42050323503364,1.2953311729486,-5.0114760163478,12.192749596522,-9.7943784836095,-6.4159112763274
2.005,-4.0894001016001,-2.6500600658399,-1.680840041762,-3.7128763156165,-32.895179658977,-12.637223929391,-3.2121665649855,-1.6969553162192,-0.13588781748344,-0.91646514836699,-3.0983503579282,0.89620807733579,1.2336193836816,-6.5466083318351,2.1809764359685
2.01,-4.0894001016001,-2.4214400601615,-0.55384001376457,-2.5995603262694,-23.657201321776,-15.549840665781,-3.2571221807995,-2.9827844921507,2.7322408961515,-1.7862155139952,-6.9057716331289,5.601172718704,-9.600823399248,-3.1386878150664,8.2749949538146
2.015,-4.1860001039996,-2.1091000524025,0.89194002215406,-1.8392988515336,-14.061404537726,-14.958087176087,-3.4725409883257,-4.709953103523,2.4127274030959,-2.9451198706365,-9.6783155126826,5.9470338976736,-19.509734420884,-0.20670125155863,9.0799792984506
2.02,-4.3792001087992,-1.7194800427216,2.4375400605532,-1.0023173215755,-5.1789139833329,-11.027030583688,-3.922822956816,-5.6412571322088,2.4763218439977,-4.3140655642783,-11.443889387586,2.9699370384132,-27.8137071573,1.7630243015905,4.573166991465
2.025,-4.6368001151989,-1.2783400317626,3.9928000991937,0.26740259118652,2.3232398399707,-4.0440286389622,-4.5678488473253,-5.4406040250195,2.6974617341338,-5.8244715097977,-12.292231061627,-0.23762843306418,-33.9998248841,2.4706615557401,-1.8835188691343
2.03,-4.9588001231987,-0.84686002104215,5.5384001375934,2.152099004922,8.2562521675807,3.575354351183,-5.2968184568743,-4.3516426316741,2.9129186976685,-7.3779345090834,-12.029903447504,-0.18181003561556,-37.752452129315,1.8151868168407,-4.6032870409813
2.035,-5.2164001295989,-0.4797800119218,6.8586001703946,4.6030619419936,12.776665748431,11.55163430479,-6.0144968256678,-2.6669605473302,5.2771051397955,-8.8570343849282,-10.276063747495,4.053396127334,-38.965579612851,-0.083438239083144,0.27621524485417
2.04,-5.4418001351989,-0.20414800507356,7.8246001943951,7.3501785276792,16.220694282822,19.292792440888,-6.614427886198,-1.2024528754944,8.6817457564689,-10.157493047425,-6.8931415474037,8.7780971575908,-37.736948158066,-2.8623361149627,10.15969121283
2.045,-5.5384001375995,-0.022507800559737,8.4042002087983,9.9880685150785,18.985566505682,24.00559463495,-6.9959808062998,-0.35665059079325,10.795288438928,-11.158083040122,-2.3508569166147,13.212390264929,-34.345268451939,-5.9450933641339,17.499189388043
2.05,-5.6028001391998,0.074060001839058,8.5652002127994,12.08990652296,21.47221375895,24.922909669604,-7.1582865930183,0.43631471455869,10.778023735878,-11.689638724632,2.400568797659,14.984483355747,-29.210433733023,-8.643477164048,17.824050063587
2.055,-5.6028001391999,0.12751200316805,8.3720002080011,13.284198895152,24.057190461619,21.805359602562,-7.1539552976437,1.476141853825,9.9065129270407,-11.59994527559,6.4178389354038,11.219518143416,-22.840038924669,-10.302811831206,12.577470085213
2.06,-5.5384001376003,0.18128600450339,7.728000192003,13.308241583163,27.022063506828,15.400009224082,-6.9938295836637,2.5564496111957,7.8305793216449,-10.84578554301,9.0987763849366,6.6212162318668,-15.772569060309,-10.443851461002,5.5506694017556
2.065,-5.3774001336008,0.25148200624815,6.697600166405,12.074743255295,30.426366649133,8.7315746374467,-6.658514771293,3.5550044178995,4.7929721080616,-9.4995805152573,10.263584746943,3.4190461291519,-8.5290313905312,-8.8549572923683,0.77536901835058
2.07,-5.0554001256017,0.3316600082396,5.2808001312055,9.716300917261,34.006490966143,2.1227326086341,-6.09986507908,4.0180337828582,3.643534288494,-7.7026196615635,10.098288993572,1.6221272360658,-1.5782261914784,-5.6130678099326,0.19520474025753
2.075,-4.5402001128023,0.40572001007868,3.9606000984064,6.5597246888133,37.203759341353,-4.5127283087613,-5.2601169132248,3.4430855833307,3.6921483547559,-5.6386283296792,8.8991133115987,2.81273026201,4.6855313348394,-1.0506432953446,2.4447901401419
2.08,-3.8318000952032,0.44758001111902,3.197460079443,3.0356750361179,39.269529984695,-8.8909919544591,-4.1420430611309,2.2260930689593,3.5343785174148,-3.5035159820284,6.8199833003851,4.4277391870467,9.9546085396763,4.3019701843561,5.1411013509008
2.085,-2.8851200716846,0.45402001128011,3.0203600750406,-0.42063226331211,39.464460441569,-10.385457224391,-2.8176823473442,0.97914800934081,3.6779970167447,-1.4436743764183,3.9549202861348,5.0412555981867,14.013144776009,9.7813231855886,6.3862544508272
2.09,-1.732360043045,0.44436001104074,2.7724200688813,-3.4593865317664,37.350453984395,-9.0379093743175,-1.3849797231438,-0.11032871037493,3.6262303368964,0.47346319049492,0.58406279118891,4.3698807490809,16.739566546101,14.660492545896,5.3295966170602
2.095,-0.37352000928627,0.46690001159922,2.3731400589618,-5.8913026142106,32.99530964466,-4.8714826277552,0.084300606292738,-0.83014249430964,2.7204264788935,2.2113369373697,-2.760908378322,2.3578746103773,18.107990143407,18.235784581364,2.592390650814
2.1,1.1012400273532,0.59892001487995,1.8257400453625,-7.7091912874295,26.92977098505,0.94310399575585,1.5685035790729,-1.181005964413,1.1752069140684,3.7153304258611,-5.4374427671619,1.2249242650798,18.184453034569,19.935008738506,-0.015059375836678
2.105,2.5727800639129,0.88228002191917,1.0690400265633,-9.0374820151776,19.924534823591,6.931202994973,3.0645024510964,-1.4497832628762,0.58965543251096,4.9467734205151,-6.937107291081,-0.0079511753764105,17.115361245846,19.421333952071,-0.85849383529776
2.11,3.9606000983945,1.3298600330378,0.14103600350831,-10.044715500639,12.765968332372,10.922284632094,4.5184042939429,-1.5065895455952,0.22463444805763,5.9446311230056,-7.0858176652428,-0.82242217006105,15.112390194338,16.658020722512,-0.4410932719994
2.115,5.248600130394,1.9159000475968,-0.8565200212754,-10.878655217852,6.0576540623485,12.181510653154,5.8188747427059,-0.97889758437997,-0.89446362487306,6.8059006252211,-6.0257535335624,0.0048014627976958,12.438627750625,11.918261666201,-0.076018831762063
2.12,6.4078001591956,2.5438000631971,-1.8064200448754,-11.621727417763,0.12293258638039,11.062883355921,6.9093197157695,0.15081077315465,-1.3709984648546,7.6005846655101,-4.0372211908549,-0.62419266068863,9.3945759631254,5.7421421258223,-0.12398407312802
2.125,7.4060001839947,3.1137400773574,-2.6339600654362,-12.250418211909,-4.937927012443,6.8307071492621,7.81558960049,1.7481339037311,-2.0847503855507,8.3281094763777,-1.386216249961,-2.086481662345,6.2988911086902,-1.1416532384134,-1.1552882376017
2.13,8.2110002039966,3.5420000879982,-3.3810000839965,-12.62144040548,-9.1382927008726,0.39177435968543,8.5654733115552,3.5563429425805,-3.4089436491551,8.9481674177585,1.7252540767832,-3.1790331143162,3.4621742479568,-7.9036379809986,-3.3056228673986
2.135,8.7262002167986,3.7674000935993,-4.0894001015969,-12.514648875522,-12.561350980812,-6.630920114777,9.1686137260957,4.9910987581799,-4.6121724705507,9.4324843341139,5.0686924506002,-4.9407384658582,1.1584901683926,-13.700771658879,-5.4133840052556
2.14,9.0160002239986,3.7674000935997,-4.7334001175969,-11.715507430909,-15.359076226747,-13.023565768636,9.5906668891024,5.7469688876379,-5.1959179469245,9.7896688847425,8.2405482316011,-5.8935108658552,-0.39818091755934,-17.769712842415,-6.5309239267348
2.145,9.0160002240004,3.6386000904006,-5.2808001311974,-10.075104856801,-17.707640081413,-16.881521137147,9.7456886361135,6.0164109973159,-5.4316581451422,10.044798990823,10.68362162236,-6.0266007954758,-1.0688391853392,-19.526914808729,-6.4969828707263
2.15,8.7584002176002,3.4132000848013,-5.6350001399985,-7.5310305882797,-19.767761450196,-18.067617433297,9.5797207064974,5.9312778977048,-5.9332771221386,10.189277464973,11.89483450325,-5.8028778533151,-0.79709981303206,-18.663111353575,-5.7439831152555
2.155,8.3076002064026,3.2071200796806,-5.7960001439992,-4.1073772348095,-21.652896833062,-16.810355104119,9.1132750422164,5.6055188465274,-5.6998174320972,10.155408590947,11.617442750329,-5.2906763960539,0.38669660508124,-15.20958934304,-5.0330701036582
2.16,7.7602001928008,3.0525600758411,-5.8604001455997,0.079482204584302,-23.378847579811,-12.833324243259,8.4331813269465,5.1794641568803,-5.4639846035813,9.8499089732711,9.9362528367415,-5.5713603700313,2.3630481953928,-9.5504982867293,-4.9820112108676
2.165,6.8264001696052,2.9656200736801,-5.5062001368017,4.8044723870302,-24.81483781302,-7.6692921876915,7.6469961094298,4.5173449282583,-5.7667473251804,9.2187281176865,7.259414231291,-5.6545376097464,4.9265196437868,-2.3707744582655,-5.659795072283
2.17,6.5366001624013,2.9720600738403,-5.1198001272019,9.7195667500948,-25.695405230135,-2.3322150495048,6.7994671891098,3.5005675067043,-5.465092012508,8.2732655920242,4.1469565599637,-5.5674721127539,7.7988891907814,5.4470137284089,-6.2124305381287
2.175,6.3112001568019,3.0815400765593,-4.9266001224009,14.390707843395,-25.716467447193,2.581337641795,6.0430113285742,2.3609014066071,-4.9720225377937,7.0641498909879,1.1039719719135,-5.7247510772272,10.651395695383,12.951441059145,-5.9301486470319
2.18,5.796000144001,3.3166000823988,-4.2182001048035,18.403588139573,-24.646790341102,5.421106366662,5.6355753737307,1.4207593313015,-4.6011351361174,5.6967028143457,-1.4931121845597,-4.7281123208868,13.137712891978,19.249538216612,-4.9999181265203
2.185,5.7638001432019,3.6064000895984,-3.1813600790451,21.464137204039,-22.411328447789,5.7551814200026,5.3711717864887,0.92490276489569,-3.6684990682569,4.3792702197614,-3.3521910887376,-3.586322097722,14.937269171335,23.613412171606,-3.6870201066114
2.19,5.8282001447982,3.9284000975983,-2.1155400525652,23.446299473167,-19.108092044979,4.1146596519394,4.9566905592681,1.0646747524287,-2.1275025350857,3.3744564514744,-4.2077490530158,-2.7007356517981,15.800150376903,25.562649137338,-2.3653095476898
2.195,5.6350001400008,4.2504001055984,-1.0561600262452,24.375620283158,-14.977094572432,1.0482384523637,4.7541017075347,1.735479320628,-0.84331240891412,2.8794787725644,-3.8313814088411,-0.87400210128999,15.588221011047,24.923457240214,-1.2048030246253
2.2,5.6350001399997,4.5080001119989,-0.30525600758774,24.414667323399,-10.334603814178,-2.3276901266633,4.809194375288,2.6148850154278,-0.081749548267593,2.9309854800403,-2.1439711313309,0.65385132079849,14.304218036871,21.856058301187,0.31662743079588
2.205,5.6028001392014,4.701200116799,0.1993180049494,23.857181158965,-5.4875946395594,-4.7768185597387,4.7272494785236,3.5744777088922,0.78278930862085,3.3801424669293,0.6629403444125,1.2147552656872,12.089594505585,16.838122136378,1.9349921672681
2.21,5.2164001296012,4.8300001199994,0.56994001415815,23.072263901888,-0.67505038798439,-5.8143262808058,4.8277627823486,4.5709893337291,1.0596647162844,4.0514023532618,4.1229996824882,1.3990610114715,9.1935540657525,10.598269329712,2.3667942269258
2.215,4.7978001192021,4.7978001191999,0.80822002007872,22.377938269147,3.9486797710837,-5.7098112771899,5.1692442212919,5.5304511120786,0.73686773176949,4.9214113820311,7.6162970426702,1.0347587279901,5.940039417824,4.0051015453582,1.293016365802
2.22,4.3470001080024,4.7012001168006,0.97566002423921,21.892820123827,8.2917096645787,-4.2660805339951,5.0707559805823,6.4390284958402,0.76511212200748,5.9363038692734,10.550456128669,0.49497454526722,2.6961362027423,-2.0666875183863,-0.098028065633535
2.225,3.9284000976026,4.4436001104012,1.1559800287191,21.507519351192,12.309193076682,-1.3694953063211,4.6810156859431,7.1337696116344,0.90721665640029,6.7724641522387,12.515394159976,0.31386427664077,-0.17418692054493,-6.8618002316608,-0.47127628864605
2.23,3.6708000912002,4.1216001024017,1.3717200340789,20.99699687232,15.987568948261,2.0036668469437,4.4964519161352,7.3168622607315,1.0887237596934,7.0710962308124,13.308999973177,0.70096931427316,-2.367528947474,-9.8402700891648,0.41991165555799
2.235,3.7030000919998,3.703000092002,1.4007000347999,20.156759200862,19.333573398714,5.041074692061,4.2975837951542,6.8618573733854,1.3583133763725,6.7353380657358,12.859026614289,1.5838000723288,-3.6925478421569,-10.735270868387,1.7931522535317
2.24,3.6708000911984,3.2006800795225,1.2525800311207,18.807508903718,22.373569283218,7.156549725049,4.1405917617642,5.8434002935303,1.7624407304425,5.8310001034907,11.180925625616,2.1644995422426,-4.0977985722036,-9.5739204855646,2.7066333562068
2.245,3.7030000920016,2.6726000664026,0.88228002192207,16.714546576919,25.131165305238,7.7665424352336,4.2333861778834,4.4154715741898,1.5700952220862,4.5001205243338,8.4081911074318,2.1257487170678,-3.6651891718271,-6.6646585005965,2.6417717012724
2.25,3.8318000951986,2.128420052883,0.24343200605124,13.649130617098,27.581028873476,6.9793222903068,4.0554482785312,2.8168897275727,0.67826074023155,3.0550819652194,4.8278321994001,1.464153028619,-2.5780079248579,-2.5519609010869,1.6842110928457
2.255,3.8962000968,1.6261000404025,-0.40250000999652,9.5966916661687,29.599721855427,4.9005970485697,3.4898234250496,1.2905039619972,-0.26936568484735,1.8643535197629,0.88153037628003,-0.13555827590517,-1.0757717581145,2.0619402977085,0.1519544543988
2.26,4.0572001007991,1.1978400297622,-1.1173400277564,4.8585219525584,30.97924177487,1.5338435121629,3.0940459335565,-0.088427961236878,-1.3987176052651,1.0876052977824,-2.889994028493,-1.8750475220943,0.59719933866531,6.4210707842316,-1.7800739774695
2.265,4.2182001047991,0.83398002072175,-1.8354000455961,-0.076716090094578,31.487371055641,-2.4297054363944,2.8832589386937,-1.2706221095046,-2.3060229736204,0.6441738466935,-5.9620511928299,-2.8172964709293,2.2275535597554,9.8293636001625,-3.512279289
2.27,4.4114001095982,0.52808001312182,-2.4472000607968,-4.6881037882189,30.935632961771,-6.0849026847981,2.885967706461,-2.1268659666732,-2.8689264288719,0.45044676253649,-7.9429202225483,-3.2638210856925,3.640890044864,11.754641916403,-4.0678389546374
2.275,4.5402001128004,0.27659800687333,-3.0235800751169,-8.5050625789125,29.233483439195,-8.8182332809997,3.4267129664445,-2.5963662792656,-3.0531595654131,0.63928093041453,-8.6405468403601,-3.2471464454285,4.7094492315891,11.904095516179,-3.3810512955975
2.28,4.6368001151988,0.079212001969199,-3.5098000871975,-11.236337736501,26.411782781393,-10.067084802895,4.0727577079023,-2.6282488767372,-3.240920951347,1.4370432126822,-8.0716271871024,-2.9567219022462,5.3774714446151,10.258380345294,-2.4983979280022
2.285,4.6368001152015,-0.10207400253501,-3.9606000983975,-12.882628823872,22.625500991928,-9.7095419447858,4.3725227838591,-2.1838719755495,-3.7432285347748,2.820573522446,-6.417051342426,-3.1888321205994,5.6796757387317,7.0631948780122,-2.4850839519883
2.29,4.5724001136002,-0.30235800751093,-4.4758001111975,-13.636385847996,18.122221091261,-8.2998913013008,4.6205048984221,-1.4071463598051,-4.1547577825732,4.4916172444202,-3.9613187022297,-3.895631783963,5.7311523301643,2.7852219761742,-3.5911555672696
2.295,4.3792001088005,-0.54096001343882,-4.9588001231975,-13.679144528591,13.200772401039,-6.1579904650675,4.8623855525973,-0.54789613230634,-4.8832073445702,6.1462228821824,-1.0646812353402,-4.9168450940861,5.6937617177731,-1.9590202791334,-5.1554094911075
2.3,4.1216001024017,-0.82754002055829,-5.3452001327983,-13.172772130921,8.1573331738363,-3.5724030660057,4.9266616789056,0.19756900546349,-5.7067392367744,7.5294703212132,1.8503810569676,-5.9732089730491,5.7313174002093,-6.4920529385891,-6.3386150775722
2.305,3.8318000952013,-1.1914000295981,-5.6028001391985,-12.354633642263,3.2358292647294,-1.5215732951617,5.0395030482334,0.68436549978804,-6.0234573219476,8.3691842961212,4.3363503671899,-6.4792914276741,5.9665845330307,-10.171961964326,-6.8120075130334
